recordtime	accelerationX	accelerationY	accelerationZ
1	-0.06387329	-0.02742004	-1.012283
2	-0.06611633	-0.02549744	-1.014832
3	-0.0940094	-0.01487732	-0.9822693
4	-0.03929138	-0.01205444	-1.023972
5	-0.03903198	-0.02276611	-1.015198
6	-0.02810669	-0.02711487	-1.012329
7	-0.02963257	-0.02600098	-1.015549
8	-0.03118896	-0.02496338	-1.010818
9	-0.0296936	-0.02507019	-1.010376
10	-0.03474426	-0.02088928	-1.011963
11	-0.03240967	-0.02444458	-1.005692
12	-0.03179932	-0.02433777	-1.008087
13	-0.02679443	-0.02392578	-1.01152
14	-0.03535461	-0.02268982	-1.009903
15	-0.04534912	-0.01869202	-1.007355
16	0.03419495	-0.1346893	-0.9795837
17	0.01890564	-0.1670532	-0.9715881
18	-0.06259155	-0.1282043	-0.9698944
19	-0.06018066	-0.02545166	-1.013016
20	-0.05311584	-0.0332489	-1.018997
21	-0.04499817	-0.02320862	-1.016937
22	-0.05180359	-0.02700806	-1.010605
23	-0.05262756	-0.02336121	-1.016724
24	-0.03794861	-0.02323914	-1.014374
25	-0.02682495	-0.01937866	-1.038437
26	-0.03489685	-0.02134705	-1.035553
27	-0.04570007	-0.02270508	-1.001968
28	-0.03926086	-0.01998901	-1.009796
29	0.03213501	-0.04470825	-0.998642
30	-0.06642151	0.0869751	-0.9201813
31	-0.005157471	-0.02546692	-1.025589
32	-0.04472351	-0.02630615	-1.018494
33	-0.05421448	-0.02801514	-1.010147
34	-0.0569458	-0.02537537	-1.007202
35	-0.05764771	-0.026474	-1.015518
36	-0.04150391	-0.02359009	-1.007431
37	-0.04277039	-0.02380371	-0.9976654
38	-0.03527832	-0.01963806	-1.010101
39	-0.0475769	-0.02581787	-1.008453
40	-0.04142761	-0.02450562	-1.008926
41	-0.03517151	-0.01808167	-1.011658
42	-0.04386902	-0.01667786	-1.005112
43	-0.05480957	-0.02250671	-1.005096
44	-0.03411865	-0.02308655	-1.014069
45	-0.0276947	-0.01860046	-1.009872
46	-0.02426147	-0.01548767	-1.005768
47	-0.05039978	-0.01585388	-1.007004
48	-0.03381348	-0.01107788	-1.014709
49	-0.03746033	-0.02442932	-1.018433
50	-0.03573608	-0.02006531	-1.013931
51	-0.03575134	-0.01837158	-1.011826
52	-0.03125	-0.01953125	-1.009735
53	-0.02615356	-0.02206421	-1.02005
54	-0.03378296	-0.01531982	-1.011551
55	-0.0342865	-0.01663208	-1.009888
56	-0.0329895	-0.01565552	-1.008438
57	-0.03407288	-0.01376343	-1.009857
58	-0.0305481	-0.0145874	-1.011734
59	-0.03457642	-0.02032471	-1.00351
60	-0.03466797	-0.02050781	-1.009811
61	-0.00604248	-0.02067566	-1.017654
62	-0.02548218	-0.01843262	-1.015335
63	-0.02937317	-0.01698303	-1.012756
64	-0.03173828	0.002243042	-1.028076
65	-0.02857971	-0.02478027	-1.00914
66	-0.03085327	-0.0196991	-1.016525
67	-0.03207397	-0.01824951	-1.013916
68	-0.0328064	-0.01669312	-1.013855
69	-0.03387451	-0.01699829	-1.011475
70	-0.03015137	-0.01855469	-1.010376
71	-0.03244019	-0.01800537	-1.011139
72	-0.03233337	-0.01931763	-1.008606
73	-0.02999878	-0.01872253	-1.00795
74	-0.03076172	-0.01741028	-1.007706
75	-0.03218079	-0.01855469	-1.008102
76	-0.03178406	-0.01742554	-1.009048
77	-0.03356934	-0.0193634	-1.007843
78	-0.03269958	-0.01954651	-1.009232
79	-0.03344727	-0.01876831	-1.007446
80	-0.03315735	-0.0186615	-1.010513
81	-0.03240967	-0.01846313	-1.007904
82	-0.03297424	-0.01933289	-1.009415
83	-0.03282166	-0.01750183	-1.007645
84	-0.03166199	-0.01797485	-1.007553
85	-0.03210449	-0.01931763	-1.00769
86	-0.03323364	-0.01847839	-1.008408
87	-0.03598022	-0.0189209	-1.007431
88	-0.0329895	-0.01786804	-1.008911
89	-0.03297424	-0.01821899	-1.011765
90	-0.03366089	-0.01698303	-1.015717
91	-0.03688049	-0.01638794	-1.013824
92	-0.03201294	-0.01637268	-1.012375
93	-0.03219604	-0.01779175	-1.013779
94	-0.03436279	-0.01852417	-1.011475
95	-0.0330658	-0.01625061	-1.010468
96	-0.03289795	-0.01821899	-1.006897
97	-0.03431702	-0.01809692	-1.008835
98	-0.03457642	-0.01802063	-1.008408
99	-0.03286743	-0.01895142	-1.009979
100	-0.03343201	-0.01956177	-1.009476
101	-0.03292847	-0.01904297	-1.008316
102	-0.03179932	-0.02017212	-1.009583
103	-0.03260803	-0.01803589	-1.010239
104	-0.03181458	-0.01890564	-1.009781
105	-0.03387451	-0.01878357	-1.008987
106	-0.0327301	-0.01849365	-1.009399
107	-0.03335571	-0.0181427	-1.011261
108	-0.03187561	-0.0161438	-1.017426
109	-0.03288269	-0.01699829	-1.014572
110	-0.03338623	-0.01768494	-1.014465
111	-0.03198242	-0.01875305	-1.014389
112	-0.03244019	-0.0176239	-1.015823
113	-0.03076172	-0.02035522	-1.013092
114	-0.03259277	-0.01731873	-1.010345
115	-0.03334045	-0.01841736	-1.00943
116	-0.03086853	-0.01757812	-1.007904
117	-0.03186035	-0.01799011	-1.007812
118	-0.03375244	-0.01835632	-1.009796
119	-0.03282166	-0.01776123	-1.008896
120	-0.03417969	-0.01834106	-1.010056
121	-0.03361511	-0.01934814	-1.009293
122	-0.03121948	-0.01856995	-1.009125
123	-0.03259277	-0.0177002	-1.008331
124	-0.03196716	-0.01768494	-1.008057
125	-0.03253174	-0.01824951	-1.009232
126	-0.03308105	-0.01564026	-1.00798
127	-0.03370667	-0.01693726	-1.009445
128	-0.03292847	-0.01660156	-1.008041
129	-0.03501892	-0.01939392	-1.007889
130	-0.03343201	-0.01753235	-1.008575
131	-0.03366089	-0.01844788	-1.007507
132	-0.03326416	-0.01846313	-1.007156
133	-0.0342865	-0.01823425	-1.007675
134	-0.03425598	-0.01757812	-1.006943
135	-0.03443909	-0.01760864	-1.004501
136	-0.03320312	-0.01657104	-1.007538
137	-0.0348053	-0.01649475	-1.00853
138	-0.03179932	-0.01925659	-1.007477
139	-0.03259277	-0.01759338	-1.00795
140	-0.03315735	-0.01913452	-1.009842
141	-0.03265381	-0.01803589	-1.00853
142	-0.03323364	-0.01799011	-1.006866
143	-0.02522278	-0.02095032	-1.007278
144	-0.02978516	-0.01948547	-1.009064
145	-0.03500366	-0.0177002	-1.007904
146	-0.03379822	-0.01828003	-1.00853
147	-0.03291321	-0.01809692	-1.006744
148	-0.0322876	-0.01808167	-1.007935
149	-0.03518677	-0.01777649	-1.006805
150	-0.03567505	-0.0194397	-1.006287
151	-0.03393555	-0.01847839	-1.008514
152	-0.03489685	-0.01753235	-1.008423
153	-0.03451538	-0.01864624	-1.009003
154	-0.03387451	-0.01754761	-1.006012
155	-0.03425598	-0.01780701	-1.007553
156	-0.03359985	-0.01902771	-1.007706
157	-0.0337677	-0.01754761	-1.00914
158	-0.03356934	-0.01937866	-1.006943
159	-0.03291321	-0.0177002	-1.010712
160	-0.03352356	-0.01724243	-1.010193
161	-0.03453064	-0.01817322	-1.007202
162	-0.03567505	-0.01831055	-1.007965
163	-0.03581238	-0.01766968	-1.009308
164	-0.03192139	-0.01730347	-1.008652
165	-0.0322113	-0.01750183	-1.008286
166	-0.03559875	-0.0164032	-1.007294
167	-0.03356934	-0.01838684	-1.010483
168	-0.03416443	-0.01863098	-1.016006
169	-0.0342865	-0.01805115	-1.012222
170	-0.03489685	-0.01725769	-1.011902
171	-0.03352356	-0.01956177	-1.008545
172	-0.03422546	-0.01708984	-1.009171
173	-0.03172302	-0.0181427	-1.009415
174	-0.03382874	-0.01863098	-1.009232
175	-0.03289795	-0.01737976	-1.009354
176	-0.03504944	-0.01771545	-1.006226
177	-0.03373718	-0.01765442	-1.009903
178	-0.03503418	-0.01765442	-1.009583
179	-0.03495789	-0.01786804	-1.008179
180	-0.0324707	-0.01695251	-1.007996
181	-0.034729	-0.01805115	-1.007935
182	-0.03256226	-0.01730347	-1.009277
183	-0.03385925	-0.01856995	-1.008484
184	-0.03477478	-0.0177002	-1.00885
185	-0.0337677	-0.01745605	-1.008682
186	-0.03517151	-0.01776123	-1.008362
187	-0.03411865	-0.01815796	-1.007477
188	-0.03244019	-0.01863098	-1.007141
189	-0.03044128	-0.0184021	-1.009705
190	-0.03381348	-0.01879883	-1.008423
191	-0.03514099	-0.01843262	-1.009842
192	-0.0344696	-0.01605225	-1.008255
193	-0.03390503	-0.01882935	-1.006653
194	-0.03305054	-0.01872253	-1.007874
195	-0.0333252	-0.01635742	-1.007034
196	-0.03372192	-0.01818848	-1.008224
197	-0.03363037	-0.0196228	-1.007935
198	-0.03503418	-0.01689148	-1.007263
199	-0.03335571	-0.01716614	-1.007706
200	-0.03388977	-0.0199585	-1.006836
201	-0.0328064	-0.01957703	-1.006363
202	-0.03240967	-0.02023315	-1.007736
203	-0.03527832	-0.01835632	-1.007996
204	-0.03442383	-0.01705933	-1.008286
205	-0.03276062	-0.01828003	-1.008057
206	-0.03118896	-0.01785278	-1.009415
207	-0.03245544	-0.01907349	-1.007904
208	-0.03390503	-0.01651001	-1.008881
209	-0.03320312	-0.01780701	-1.007874
210	-0.03337097	-0.01976013	-1.007141
211	-0.03520203	-0.01789856	-1.007202
212	-0.03457642	-0.01754761	-1.007706
213	-0.0322876	-0.01728821	-1.006699
214	-0.03334045	-0.01687622	-1.005798
215	-0.03372192	-0.01853943	-1.006729
216	-0.03469849	-0.0186615	-1.007614
217	-0.0337677	-0.01820374	-1.006973
218	-0.03373718	-0.01782227	-1.006271
219	-0.03297424	-0.01823425	-1.00676
220	-0.03266907	-0.01927185	-1.009415
221	-0.03285217	-0.01858521	-1.008438
222	-0.03346252	-0.01876831	-1.007172
223	-0.03314209	-0.01916504	-1.006699
224	-0.03509521	-0.01875305	-1.008621
225	-0.03552246	-0.01792908	-1.006531
226	-0.03520203	-0.01853943	-1.007965
227	-0.03266907	-0.01805115	-1.011139
228	-0.03468323	-0.01934814	-1.014252
229	-0.03245544	-0.01800537	-1.014526
230	-0.03382874	-0.01928711	-1.012787
231	-0.03373718	-0.01675415	-1.012711
232	-0.03388977	-0.01754761	-1.012131
233	-0.03392029	-0.0171814	-1.010361
234	-0.03440857	-0.01794434	-1.009659
235	-0.03343201	-0.01809692	-1.008453
236	-0.0332489	-0.0171814	-1.00853
237	-0.03488159	-0.01863098	-1.008011
238	-0.0337677	-0.0201416	-1.007751
239	-0.03459167	-0.01861572	-1.008377
240	-0.03393555	-0.0196991	-1.008698
241	-0.03327942	-0.01783752	-1.00676
242	-0.03279114	-0.01852417	-1.011047
243	-0.03344727	-0.01921082	-1.013474
244	-0.0344696	-0.01823425	-1.014206
245	-0.03340149	-0.0165863	-1.013687
246	-0.03375244	-0.01756287	-1.014481
247	-0.0328064	-0.01933289	-1.013199
248	-0.03416443	-0.01766968	-1.010513
249	-0.03268433	-0.01777649	-1.010727
250	-0.03192139	-0.01835632	-1.008606
251	-0.03207397	-0.01719666	-1.00798
252	-0.03269958	-0.01820374	-1.007278
253	-0.0328064	-0.01783752	-1.007599
254	-0.03489685	-0.01800537	-1.005875
255	-0.03463745	-0.01875305	-1.008392
256	-0.03523254	-0.01695251	-1.00798
257	-0.0332489	-0.01791382	-1.00882
258	-0.03257751	-0.01742554	-1.008347
259	-0.03292847	-0.0202179	-1.009125
260	-0.0328064	-0.01832581	-1.007523
261	-0.03456116	-0.01626587	-1.007843
262	-0.03601074	-0.01832581	-1.007614
263	-0.03364563	-0.01799011	-1.008926
264	-0.0328064	-0.02030945	-1.008942
265	-0.03424072	-0.01959229	-1.007004
266	-0.03425598	-0.01808167	-1.008591
267	-0.03240967	-0.01768494	-1.00708
268	-0.03340149	-0.01991272	-1.006073
269	-0.0352478	-0.01766968	-1.005692
270	-0.03323364	-0.01940918	-1.008759
271	-0.03369141	-0.02056885	-1.006882
272	-0.03198242	-0.01852417	-1.006683
273	-0.03250122	-0.01957703	-1.007675
274	-0.03364563	-0.01948547	-1.008759
275	-0.03317261	-0.01763916	-1.009003
276	-0.03474426	-0.01849365	-1.006531
277	-0.03396606	-0.01731873	-1.008926
278	-0.03573608	-0.01982117	-1.007843
279	-0.03289795	-0.01850891	-1.008408
280	-0.03384399	-0.01878357	-1.006332
281	-0.03378296	-0.016922	-1.009521
282	-0.032547	-0.01983643	-1.009903
283	-0.03462219	-0.01782227	-1.009796
284	-0.03309631	-0.01867676	-1.008606
285	-0.03196716	-0.01924133	-1.005341
286	-0.03199768	-0.01765442	-1.006226
287	-0.03434753	-0.0174408	-1.011642
288	-0.0355072	-0.01838684	-1.014404
289	-0.03320312	-0.01913452	-1.016571
290	-0.03372192	-0.0177002	-1.013687
291	-0.03433228	-0.01829529	-1.012344
292	-0.03370667	-0.0189209	-1.010696
293	-0.03219604	-0.01757812	-1.010712
294	-0.03089905	-0.01586914	-1.009842
295	-0.03509521	-0.0178833	-1.009644
296	-0.03468323	-0.01890564	-1.008148
297	-0.03245544	-0.01733398	-1.008499
298	-0.03500366	-0.01818848	-1.007782
299	-0.03437805	-0.01768494	-1.009552
300	-0.03453064	-0.01864624	-1.007996
301	-0.03417969	-0.01899719	-1.009048
302	-0.03387451	-0.01893616	-1.00769
303	-0.03507996	-0.01756287	-1.009247
304	-0.03747559	-0.01757812	-1.009354
305	-0.03312683	-0.01847839	-1.009262
306	-0.03356934	-0.01916504	-1.008804
307	-0.03451538	-0.01959229	-1.007278
308	-0.03338623	-0.01805115	-1.006042
309	-0.03363037	-0.01693726	-1.008301
310	-0.03260803	-0.01919556	-1.008209
311	-0.03131104	-0.01870728	-1.008377
312	-0.03282166	-0.0174408	-1.008789
313	-0.03138733	-0.01751709	-1.008881
314	-0.03213501	-0.01838684	-1.007751
315	-0.03189087	-0.01879883	-1.006699
316	-0.03256226	-0.01789856	-1.007629
317	-0.03385925	-0.01652527	-1.008362
318	-0.03424072	-0.01823425	-1.006989
319	-0.03312683	-0.01940918	-1.008163
320	-0.03404236	-0.01750183	-1.006516
321	-0.03500366	-0.01806641	-1.007248
322	-0.03504944	-0.01559448	-1.007187
323	-0.03379822	-0.01847839	-1.007721
324	-0.03504944	-0.01605225	-1.007446
325	-0.03074646	-0.01731873	-1.008087
326	-0.03483582	-0.01667786	-1.006897
327	-0.03416443	-0.01727295	-1.00853
328	-0.03544617	-0.01834106	-1.008408
329	-0.03282166	-0.01812744	-1.007233
330	-0.0345459	-0.01695251	-1.006195
331	-0.03297424	-0.01945496	-1.007385
332	-0.03242493	-0.01748657	-1.008148
333	-0.03421021	-0.01861572	-1.009003
334	-0.0342865	-0.01799011	-1.008209
335	-0.0337677	-0.01986694	-1.006027
336	-0.0340271	-0.01828003	-1.006607
337	-0.03353882	-0.01881409	-1.008728
338	-0.03459167	-0.01850891	-1.006668
339	-0.03590393	-0.01661682	-1.005768
340	-0.03489685	-0.01766968	-1.007034
341	-0.03321838	-0.01731873	-1.008224
342	-0.03587341	-0.01763916	-1.008499
343	-0.03404236	-0.0206604	-1.006897
344	-0.03361511	-0.01779175	-1.004745
345	-0.03684998	-0.01771545	-1.007263
346	-0.0362854	-0.01818848	-1.00708
347	-0.03356934	-0.01768494	-1.009155
348	-0.03450012	-0.0193634	-1.012146
349	-0.03382874	-0.01745605	-1.012436
350	-0.0345459	-0.01651001	-1.010376
351	-0.03327942	-0.01861572	-1.008743
352	-0.03282166	-0.0209198	-1.01033
353	-0.03398132	-0.01809692	-1.008545
354	-0.03392029	-0.01750183	-1.006287
355	-0.03457642	-0.01681519	-1.008118
356	-0.0345459	-0.01739502	-1.008453
357	-0.0332489	-0.01686096	-1.00914
358	-0.03257751	-0.01809692	-1.007812
359	-0.03475952	-0.01916504	-1.008591
360	-0.03469849	-0.01922607	-1.007263
361	-0.03451538	-0.01869202	-1.009018
362	-0.03346252	-0.01849365	-1.009354
363	-0.03503418	-0.01585388	-1.008072
364	-0.03344727	-0.01895142	-1.007996
365	-0.03515625	-0.02085876	-1.006989
366	-0.03266907	-0.01847839	-1.007507
367	-0.03619385	-0.01925659	-1.007553
368	-0.03445435	-0.01831055	-1.008286
369	-0.03469849	-0.01760864	-1.007187
370	-0.03240967	-0.01713562	-1.007782
371	-0.03526306	-0.01664734	-1.007263
372	-0.03311157	-0.01782227	-1.009262
373	-0.03436279	-0.01850891	-1.008621
374	-0.0350647	-0.01834106	-1.008606
375	-0.03436279	-0.01847839	-1.008972
376	-0.0348053	-0.01759338	-1.006165
377	-0.03363037	-0.01823425	-1.006165
378	-0.03271484	-0.01904297	-1.005951
379	-0.03543091	-0.01803589	-1.010818
380	-0.03411865	-0.01785278	-1.010162
381	-0.03500366	-0.01948547	-1.007217
382	-0.03340149	-0.01795959	-1.008606
383	-0.03507996	-0.0174408	-1.006668
384	-0.03416443	-0.0209198	-1.007156
385	-0.03372192	-0.01808167	-1.007736
386	-0.03527832	-0.01905823	-1.006363
387	-0.03266907	-0.01773071	-1.006622
388	-0.03503418	-0.01889038	-1.007828
389	-0.03544617	-0.01893616	-1.00824
390	-0.03189087	-0.01806641	-1.008347
391	-0.03437805	-0.01721191	-1.008621
392	-0.03523254	-0.01869202	-1.004822
393	-0.03543091	-0.01867676	-1.007431
394	-0.03131104	-0.0193634	-1.009613
395	-0.03605652	-0.01766968	-1.009506
396	-0.0349884	-0.01763916	-1.00679
397	-0.0335083	-0.01789856	-1.006577
398	-0.03369141	-0.019104	-1.007858
399	-0.03309631	-0.01945496	-1.008438
400	-0.03419495	-0.01855469	-1.008026
401	-0.0350647	-0.01808167	-1.005783
402	-0.03691101	-0.01802063	-1.007538
403	-0.03521729	-0.01751709	-1.009857
404	-0.03526306	-0.01902771	-1.008636
405	-0.03440857	-0.01748657	-1.009262
406	-0.03666687	-0.01689148	-1.007004
407	-0.03385925	-0.01591492	-1.009628
408	-0.03341675	-0.01901245	-1.015152
409	-0.03422546	-0.01759338	-1.014969
410	-0.03425598	-0.01663208	-1.013977
411	-0.03385925	-0.01786804	-1.012405
412	-0.03260803	-0.01649475	-1.010696
413	-0.03225708	-0.01802063	-1.011642
414	-0.0322876	-0.01724243	-1.009247
415	-0.03358459	-0.01756287	-1.007416
416	-0.03462219	-0.01768494	-1.009018
417	-0.03364563	-0.01722717	-1.00618
418	-0.03479004	-0.01873779	-1.008423
419	-0.0340271	-0.01805115	-1.007996
420	-0.03269958	-0.01899719	-1.007889
421	-0.03440857	-0.01625061	-1.006821
422	-0.03364563	-0.01914978	-1.009018
423	-0.03494263	-0.02029419	-1.008408
424	-0.03399658	-0.01956177	-1.008316
425	-0.03416443	-0.01670837	-1.00856
426	-0.03596497	-0.0174408	-1.006638
427	-0.03599548	-0.01733398	-1.00737
428	-0.03517151	-0.01911926	-1.009277
429	-0.03382874	-0.01730347	-1.007767
430	-0.03257751	-0.01780701	-1.008743
431	-0.0329895	-0.01928711	-1.007019
432	-0.0327301	-0.01879883	-1.008011
433	-0.03179932	-0.01751709	-1.007294
434	-0.03363037	-0.01937866	-1.01123
435	-0.03575134	-0.01759338	-1.014633
436	-0.03443909	-0.01739502	-1.012711
437	-0.03509521	-0.01760864	-1.014725
438	-0.03623962	-0.01792908	-1.013138
439	-0.03569031	-0.01782227	-1.009888
440	-0.03363037	-0.01745605	-1.011368
441	-0.0328064	-0.01727295	-1.008224
442	-0.03262329	-0.0174408	-1.009537
443	-0.0345459	-0.01864624	-1.007965
444	-0.03450012	-0.01771545	-1.008194
445	-0.03262329	-0.01771545	-1.006607
446	-0.03411865	-0.01867676	-1.008362
447	-0.03440857	-0.01921082	-1.006653
448	-0.03343201	-0.01860046	-1.007553
449	-0.03292847	-0.01889038	-1.007675
450	-0.03347778	-0.0178833	-1.008575
451	-0.03288269	-0.01646423	-1.007385
452	-0.03495789	-0.01878357	-1.006042
453	-0.03417969	-0.01750183	-1.008774
454	-0.03501892	-0.01853943	-1.007523
455	-0.03651428	-0.01742554	-1.006256
456	-0.03501892	-0.01870728	-1.007095
457	-0.03327942	-0.01664734	-1.006683
458	-0.03474426	-0.0194397	-1.007202
459	-0.03408813	-0.01603699	-1.009857
460	-0.03222656	-0.01913452	-1.007874
461	-0.03401184	-0.01858521	-1.007874
462	-0.03616333	-0.01679993	-1.007523
463	-0.03570557	-0.01747131	-1.008545
464	-0.03466797	-0.01580811	-1.007065
465	-0.03370667	-0.01843262	-1.006775
466	-0.03407288	-0.01586914	-1.007233
467	-0.03338623	-0.01663208	-1.009491
468	-0.03321838	-0.01731873	-1.010696
469	-0.03373718	-0.0160675	-1.009995
470	-0.03533936	-0.01916504	-1.010651
471	-0.03501892	-0.01641846	-1.009613
472	-0.03422546	-0.01846313	-1.005508
473	-0.0348053	-0.0189209	-1.00882
474	-0.03387451	-0.01957703	-1.008026
475	-0.03434753	-0.0177002	-1.009552
476	-0.03517151	-0.01731873	-1.007462
477	-0.03523254	-0.01972961	-1.006607
478	-0.03266907	-0.01786804	-1.009415
479	-0.03497314	-0.01821899	-1.009354
480	-0.03424072	-0.01800537	-1.007812
481	-0.03408813	-0.01832581	-1.00676
482	-0.03260803	-0.01837158	-1.007187
483	-0.03265381	-0.02084351	-1.008774
484	-0.03399658	-0.0178833	-1.007828
485	-0.03422546	-0.01805115	-1.009171
486	-0.03559875	-0.01902771	-1.007538
487	-0.03459167	-0.01698303	-1.007477
488	-0.03356934	-0.01974487	-1.006897
489	-0.03549194	-0.01783752	-1.006256
490	-0.0335083	-0.01989746	-1.007233
491	-0.03593445	-0.0181427	-1.00798
492	-0.03569031	-0.01817322	-1.007935
493	-0.03330994	-0.0165863	-1.007233
494	-0.0322876	-0.0178833	-1.008591
495	-0.03488159	-0.01895142	-1.006607
496	-0.03453064	-0.01982117	-1.006622
497	-0.03277588	-0.01721191	-1.005539
498	-0.03530884	-0.01837158	-1.007828
499	-0.03520203	-0.01823425	-1.007187
500	-0.03509521	-0.01942444	-1.006287
501	-0.03259277	-0.01835632	-1.007126
502	-0.03462219	-0.02032471	-1.005615
503	-0.03599548	-0.01785278	-1.00592
504	-0.03471375	-0.01771545	-1.00827
505	-0.03218079	-0.01806641	-1.006668
506	-0.03479004	-0.01748657	-1.007385
507	-0.03579712	-0.01954651	-1.0056
508	-0.03523254	-0.01846313	-1.005402
509	-0.03369141	-0.01812744	-1.005554
510	-0.0309906	-0.02284241	-1.00679
511	-0.03314209	-0.01966858	-1.006546
512	-0.03440857	-0.01934814	-1.00882
513	-0.03445435	-0.01979065	-1.007339
514	-0.03393555	-0.01863098	-1.007751
515	-0.0328064	-0.01951599	-1.008209
516	-0.03625488	-0.01887512	-1.005875
517	-0.03335571	-0.01954651	-1.006516
518	-0.03421021	-0.01893616	-1.009308
519	-0.03373718	-0.01812744	-1.007401
520	-0.03581238	-0.02030945	-1.008438
521	-0.03390503	-0.01786804	-1.008408
522	-0.03511047	-0.0198822	-1.009186
523	-0.03466797	-0.01992798	-1.007797
524	-0.0315094	-0.0193634	-1.007263
525	-0.03268433	-0.01931763	-1.006882
526	-0.03318787	-0.0196991	-1.009308
527	-0.03413391	-0.01841736	-1.005356
528	-0.03334045	-0.01789856	-1.005646
529	-0.03556824	-0.01934814	-1.008224
530	-0.03410339	-0.01998901	-1.008774
531	-0.03327942	-0.01908875	-1.012177
532	-0.03398132	-0.01794434	-1.015152
533	-0.03431702	-0.01745605	-1.013107
534	-0.03367615	-0.01776123	-1.012146
535	-0.03295898	-0.01922607	-1.013138
536	-0.03305054	-0.01882935	-1.011093
537	-0.03282166	-0.01745605	-1.010345
538	-0.03283691	-0.01824951	-1.008789
539	-0.03520203	-0.01931763	-1.009308
540	-0.03422546	-0.01870728	-1.008911
541	-0.03413391	-0.02027893	-1.007004
542	-0.03514099	-0.01991272	-1.007248
543	-0.03405762	-0.01763916	-1.007507
544	-0.0335083	-0.01930237	-1.008865
545	-0.03372192	-0.01841736	-1.008148
546	-0.03411865	-0.01701355	-1.007507
547	-0.03231812	-0.01937866	-1.007721
548	-0.03292847	-0.0186615	-1.008698
549	-0.03475952	-0.01953125	-1.007065
550	-0.03474426	-0.01853943	-1.008316
551	-0.03363037	-0.01971436	-1.005829
552	-0.03256226	-0.01860046	-1.007324
553	-0.03251648	-0.01925659	-1.009109
554	-0.03427124	-0.01899719	-1.006699
555	-0.03411865	-0.01794434	-1.005905
556	-0.03372192	-0.01806641	-1.006195
557	-0.03378296	-0.01921082	-1.007797
558	-0.03343201	-0.01989746	-1.007446
559	-0.03459167	-0.020401	-1.007629
560	-0.03475952	-0.01882935	-1.006439
561	-0.03530884	-0.01783752	-1.00882
562	-0.03370667	-0.02001953	-1.00589
563	-0.03424072	-0.01742554	-1.007858
564	-0.03443909	-0.020401	-1.007675
565	-0.03419495	-0.01979065	-1.005829
566	-0.03460693	-0.01847839	-1.006516
567	-0.03399658	-0.01930237	-1.008392
568	-0.03526306	-0.01899719	-1.008987
569	-0.03445435	-0.01635742	-1.008911
570	-0.03591919	-0.01972961	-1.006363
571	-0.0355072	-0.01951599	-1.007782
572	-0.03436279	-0.01800537	-1.0065
573	-0.03271484	-0.01773071	-1.006653
574	-0.03607178	-0.02023315	-1.005875
575	-0.03245544	-0.01911926	-1.00412
576	-0.0344696	-0.01701355	-1.00499
577	-0.03390503	-0.01791382	-1.008209
578	-0.03488159	-0.01771545	-1.007416
579	-0.03239441	-0.01950073	-1.005554
580	-0.03277588	-0.01916504	-1.00798
581	-0.03338623	-0.01965332	-1.00708
582	-0.03367615	-0.01856995	-1.007889
583	-0.03448486	-0.01786804	-1.006516
584	-0.0322113	-0.01873779	-1.007935
585	-0.03468323	-0.01925659	-1.006332
586	-0.03340149	-0.01773071	-1.008133
587	-0.03417969	-0.019104	-1.009262
588	-0.03553772	-0.01872253	-1.013275
589	-0.03411865	-0.01795959	-1.014893
590	-0.03382874	-0.01820374	-1.013382
591	-0.03379822	-0.01852417	-1.011932
592	-0.0320282	-0.01898193	-1.012115
593	-0.03474426	-0.01832581	-1.01004
594	-0.03308105	-0.01979065	-1.010544
595	-0.03161621	-0.01885986	-1.009445
596	-0.03382874	-0.01739502	-1.007172
597	-0.03440857	-0.0186615	-1.007294
598	-0.03526306	-0.01979065	-1.009552
599	-0.03363037	-0.01843262	-1.007797
600	-0.03459167	-0.02017212	-1.007614
601	-0.03256226	-0.01878357	-1.008438
602	-0.0330658	-0.02053833	-1.00679
603	-0.03477478	-0.0202179	-1.008286
604	-0.03356934	-0.01896667	-1.009354
605	-0.03605652	-0.0188446	-1.00766
606	-0.03317261	-0.01966858	-1.007324
607	-0.03240967	-0.01856995	-1.007843
608	-0.03512573	-0.01841736	-1.007965
609	-0.03579712	-0.02026367	-1.007538
610	-0.03564453	-0.01873779	-1.007172
611	-0.03503418	-0.02043152	-1.007599
612	-0.03588867	-0.01919556	-1.007111
613	-0.03271484	-0.0202179	-1.006897
614	-0.03530884	-0.01794434	-1.006088
615	-0.03494263	-0.01942444	-1.008591
616	-0.03369141	-0.01997375	-1.007294
617	-0.0335083	-0.02011108	-1.006317
618	-0.03466797	-0.0184021	-1.008759
619	-0.03445435	-0.01927185	-1.008469
620	-0.03291321	-0.01982117	-1.00705
621	-0.03382874	-0.01795959	-1.011108
622	-0.03408813	-0.01951599	-1.007462
623	-0.03434753	-0.01875305	-1.009277
624	-0.03427124	-0.01930237	-1.006927
625	-0.03363037	-0.01968384	-1.006866
626	-0.03300476	-0.0193634	-1.006638
627	-0.03468323	-0.01869202	-1.006073
628	-0.03372192	-0.01678467	-1.007278
629	-0.03421021	-0.0193634	-1.007202
630	-0.03457642	-0.02087402	-1.006607
631	-0.03475952	-0.02076721	-1.00618
632	-0.03474426	-0.01898193	-1.004868
633	-0.03279114	-0.01939392	-1.005676
634	-0.03286743	-0.01904297	-1.008209
635	-0.03536987	-0.01907349	-1.007141
636	-0.03364563	-0.01974487	-1.008362
637	-0.03355408	-0.01838684	-1.006866
638	-0.03410339	-0.0194397	-1.007034
639	-0.03414917	-0.01960754	-1.00621
640	-0.03479004	-0.0194397	-1.008179
641	-0.03445435	-0.02105713	-1.006561
642	-0.03515625	-0.01998901	-1.00679
643	-0.03385925	-0.01800537	-1.008652
644	-0.03637695	-0.01847839	-1.007553
645	-0.03456116	-0.01867676	-1.006195
646	-0.03300476	-0.01817322	-1.007614
647	-0.03431702	-0.01992798	-1.009033
648	-0.03305054	-0.01638794	-1.010742
649	-0.03555298	-0.01966858	-1.010696
650	-0.03268433	-0.01939392	-1.010284
651	-0.03335571	-0.0214386	-1.01004
652	-0.03334045	-0.0196228	-1.007294
653	-0.03588867	-0.01834106	-1.00618
654	-0.03388977	-0.01797485	-1.006348
655	-0.03277588	-0.02131653	-1.005295
656	-0.03630066	-0.01963806	-1.008331
657	-0.0344696	-0.01795959	-1.007797
658	-0.03475952	-0.019104	-1.007492
659	-0.03320312	-0.01811218	-1.006409
660	-0.03463745	-0.01934814	-1.007629
661	-0.03201294	-0.01966858	-1.008499
662	-0.03491211	-0.01976013	-1.006302
663	-0.03514099	-0.01808167	-1.007416
664	-0.0342865	-0.01893616	-1.007339
665	-0.03517151	-0.02038574	-1.011826
666	-0.03256226	-0.01731873	-1.013855
667	-0.03404236	-0.01919556	-1.014023
668	-0.03459167	-0.01741028	-1.012115
669	-0.03395081	-0.01870728	-1.011948
670	-0.03330994	-0.0206604	-1.009735
671	-0.03430176	-0.01776123	-1.009766
672	-0.03416443	-0.01919556	-1.007629
673	-0.03356934	-0.01693726	-1.007355
674	-0.03422546	-0.01937866	-1.008362
675	-0.03457642	-0.01956177	-1.007629
676	-0.03178406	-0.01895142	-1.007141
677	-0.03395081	-0.02041626	-1.008377
678	-0.03434753	-0.02026367	-1.005295
679	-0.03320312	-0.01853943	-1.007477
680	-0.03398132	-0.01881409	-1.007248
681	-0.03395081	-0.01971436	-1.008972
682	-0.03369141	-0.01799011	-1.007568
683	-0.03469849	-0.01881409	-1.007919
684	-0.03495789	-0.01869202	-1.007675
685	-0.03494263	-0.01828003	-1.006577
686	-0.03451538	-0.02050781	-1.00824
687	-0.03372192	-0.01794434	-1.007538
688	-0.03234863	-0.01951599	-1.00769
689	-0.03460693	-0.01945496	-1.007721
690	-0.03312683	-0.01898193	-1.008774
691	-0.03591919	-0.02047729	-1.007935
692	-0.03396606	-0.01858521	-1.006409
693	-0.03364563	-0.01895142	-1.006592
694	-0.03469849	-0.0186615	-1.007339
695	-0.03456116	-0.01902771	-1.006989
696	-0.03601074	-0.01965332	-1.006668
697	-0.03285217	-0.02067566	-1.006592
698	-0.03283691	-0.02023315	-1.006134
699	-0.03463745	-0.0189209	-1.008453
700	-0.03422546	-0.01956177	-1.007797
701	-0.03552246	-0.01885986	-1.008575
702	-0.03323364	-0.02038574	-1.008331
703	-0.0345459	-0.01683044	-1.0065
704	-0.0328064	-0.01994324	-1.007614
705	-0.03401184	-0.01931763	-1.008255
706	-0.0322876	-0.02003479	-1.007614
707	-0.03495789	-0.02058411	-1.009796
708	-0.03564453	-0.01940918	-1.014618
709	-0.03266907	-0.01925659	-1.012878
710	-0.03562927	-0.01893616	-1.01297
711	-0.03611755	-0.01823425	-1.011871
712	-0.03288269	-0.01824951	-1.014145
713	-0.03414917	-0.01832581	-1.010864
714	-0.03295898	-0.01902771	-1.009201
715	-0.03295898	-0.01741028	-1.008926
716	-0.03393555	-0.01905823	-1.008301
717	-0.03443909	-0.01968384	-1.008591
718	-0.03181458	-0.0188446	-1.007095
719	-0.03434753	-0.01853943	-1.006897
720	-0.03465271	-0.01983643	-1.008759
721	-0.03485107	-0.01797485	-1.007553
722	-0.03477478	-0.01834106	-1.008148
723	-0.03205872	-0.01971436	-1.009216
724	-0.03486633	-0.01808167	-1.008789
725	-0.03408813	-0.01893616	-1.005798
726	-0.03344727	-0.02035522	-1.00885
727	-0.03445435	-0.01864624	-1.007675
728	-0.03556824	-0.01945496	-1.007645
729	-0.03497314	-0.01808167	-1.006836
730	-0.03570557	-0.01820374	-1.00795
731	-0.03358459	-0.01858521	-1.008438
732	-0.03457642	-0.02056885	-1.008606
733	-0.03486633	-0.01957703	-1.008896
734	-0.03424072	-0.01739502	-1.008484
735	-0.0328064	-0.01765442	-1.005142
736	-0.03515625	-0.01850891	-1.007675
737	-0.03535461	-0.02011108	-1.00618
738	-0.03427124	-0.01979065	-1.006577
739	-0.03649902	-0.01873779	-1.007797
740	-0.03364563	-0.01834106	-1.00647
741	-0.03561401	-0.0181427	-1.006119
742	-0.03334045	-0.01774597	-1.006439
743	-0.03398132	-0.01773071	-1.007019
744	-0.03311157	-0.01771545	-1.007004
745	-0.03479004	-0.02050781	-1.006821
746	-0.03404236	-0.02061462	-1.007584
747	-0.0328064	-0.01823425	-1.004776
748	-0.03381348	-0.01719666	-1.006714
749	-0.03355408	-0.0202179	-1.007599
750	-0.03488159	-0.01867676	-1.00737
751	-0.03567505	-0.01950073	-1.008316
752	-0.03417969	-0.01879883	-1.006058
753	-0.03482056	-0.01843262	-1.007477
754	-0.0340271	-0.01812744	-1.006302
755	-0.03347778	-0.01850891	-1.009079
756	-0.03517151	-0.01828003	-1.008087
757	-0.03417969	-0.01785278	-1.007126
758	-0.03427124	-0.01844788	-1.007126
759	-0.03541565	-0.01893616	-1.008087
760	-0.03535461	-0.01890564	-1.010025
761	-0.03439331	-0.01977539	-1.00705
762	-0.03347778	-0.01824951	-1.007187
763	-0.03311157	-0.01786804	-1.006042
764	-0.03591919	-0.02058411	-1.007065
765	-0.03279114	-0.01974487	-1.005661
766	-0.03266907	-0.02124023	-1.005402
767	-0.03379822	-0.01939392	-1.007309
768	-0.03622437	-0.01972961	-1.008453
769	-0.03523254	-0.01959229	-1.006577
770	-0.03419495	-0.01954651	-1.008514
771	-0.03555298	-0.01905823	-1.00766
772	-0.03414917	-0.01794434	-1.008301
773	-0.03330994	-0.02020264	-1.007599
774	-0.03564453	-0.01808167	-1.007355
775	-0.03395081	-0.01895142	-1.006912
776	-0.03182983	-0.01869202	-1.006714
777	-0.03533936	-0.0202179	-1.006897
778	-0.03431702	-0.01899719	-1.006714
779	-0.03431702	-0.01860046	-1.009705
780	-0.03500366	-0.01901245	-1.008286
781	-0.03627014	-0.01809692	-1.008194
782	-0.03315735	-0.02044678	-1.007294
783	-0.03469849	-0.01914978	-1.007614
784	-0.03559875	-0.01864624	-1.006882
785	-0.0344696	-0.01947021	-1.006699
786	-0.03178406	-0.01860046	-1.008896
787	-0.03475952	-0.01939392	-1.006683
788	-0.03543091	-0.01853943	-1.007233
789	-0.03436279	-0.01983643	-1.006653
790	-0.03485107	-0.01863098	-1.008743
791	-0.03343201	-0.02003479	-1.00705
792	-0.03407288	-0.02062988	-1.006882
793	-0.03385925	-0.02139282	-1.005829
794	-0.0332489	-0.02005005	-1.007217
795	-0.03482056	-0.01846313	-1.006317
796	-0.03411865	-0.01914978	-1.007584
797	-0.03274536	-0.019104	-1.007385
798	-0.03599548	-0.02006531	-1.007996
799	-0.03302002	-0.01876831	-1.005737
800	-0.03343201	-0.02049255	-1.005905
801	-0.03396606	-0.01849365	-1.007889
802	-0.03424072	-0.01913452	-1.008789
803	-0.0350647	-0.01902771	-1.007812
804	-0.03466797	-0.01885986	-1.005112
805	-0.03227234	-0.01933289	-1.007416
806	-0.03355408	-0.01889038	-1.007355
807	-0.03497314	-0.01861572	-1.00618
808	-0.03395081	-0.01849365	-1.007202
809	-0.03474426	-0.01991272	-1.006882
810	-0.03468323	-0.0178833	-1.008133
811	-0.03250122	-0.01701355	-1.006516
812	-0.03533936	-0.0189209	-1.006638
813	-0.03643799	-0.02012634	-1.007492
814	-0.03581238	-0.01905823	-1.005356
815	-0.03279114	-0.01858521	-1.007645
816	-0.03337097	-0.01806641	-1.006012
817	-0.03312683	-0.01914978	-1.009109
818	-0.03462219	-0.01954651	-1.008987
819	-0.03378296	-0.01898193	-1.007278
820	-0.03379822	-0.02000427	-1.00563
821	-0.03594971	-0.02029419	-1.008621
822	-0.03442383	-0.01890564	-1.007385
823	-0.03193665	-0.01873779	-1.007156
824	-0.03347778	-0.01832581	-1.006546
825	-0.03410339	-0.01876831	-1.007156
826	-0.03462219	-0.01664734	-1.008331
827	-0.0332489	-0.01954651	-1.010574
828	-0.03491211	-0.01707458	-1.014389
829	-0.03390503	-0.01879883	-1.012955
830	-0.03581238	-0.01750183	-1.012024
831	-0.03268433	-0.01843262	-1.012939
832	-0.03385925	-0.02008057	-1.011124
833	-0.03567505	-0.01832581	-1.009689
834	-0.03515625	-0.01937866	-1.009949
835	-0.03358459	-0.01931763	-1.007996
836	-0.03518677	-0.0188446	-1.00943
837	-0.03340149	-0.01895142	-1.006409
838	-0.03460693	-0.02061462	-1.006668
839	-0.03193665	-0.01882935	-1.008057
840	-0.03286743	-0.0202179	-1.007187
841	-0.03671265	-0.0181427	-1.007675
842	-0.034729	-0.02076721	-1.007278
843	-0.03567505	-0.01878357	-1.008911
844	-0.03297424	-0.01760864	-1.009308
845	-0.03366089	-0.01731873	-1.007919
846	-0.03404236	-0.01828003	-1.008881
847	-0.03373718	-0.01885986	-1.006592
848	-0.03637695	-0.01829529	-1.005615
849	-0.03466797	-0.02146912	-1.007095
850	-0.03340149	-0.01986694	-1.006927
851	-0.03317261	-0.01922607	-1.009064
852	-0.03414917	-0.02052307	-1.007111
853	-0.0328064	-0.01828003	-1.008347
854	-0.03347778	-0.0188446	-1.006775
855	-0.03555298	-0.01846313	-1.006561
856	-0.03674316	-0.02119446	-1.006699
857	-0.03482056	-0.02090454	-1.007065
858	-0.03120422	-0.02041626	-1.007492
859	-0.03361511	-0.0198822	-1.006653
860	-0.0348053	-0.02001953	-1.006149
861	-0.03433228	-0.01800537	-1.005615
862	-0.03520203	-0.01960754	-1.006546
863	-0.03479004	-0.01858521	-1.007065
864	-0.03367615	-0.01776123	-1.007172
865	-0.03398132	-0.01992798	-1.007019
866	-0.03219604	-0.01811218	-1.009445
867	-0.03411865	-0.0186615	-1.008896
868	-0.03363037	-0.01852417	-1.007706
869	-0.03434753	-0.02029419	-1.006912
870	-0.03439331	-0.01896667	-1.00676
871	-0.03593445	-0.01947021	-1.007248
872	-0.0322876	-0.02078247	-1.007751
873	-0.03456116	-0.02049255	-1.006973
874	-0.03514099	-0.01916504	-1.006073
875	-0.0349884	-0.0206604	-1.00679
876	-0.03608704	-0.0209198	-1.006851
877	-0.0349884	-0.02177429	-1.006638
878	-0.03225708	-0.01937866	-1.006622
879	-0.03463745	-0.01895142	-1.006546
880	-0.0337677	-0.0196228	-1.008392
881	-0.03486633	-0.01960754	-1.008011
882	-0.03288269	-0.01911926	-1.007004
883	-0.03430176	-0.01824951	-1.009186
884	-0.03645325	-0.01921082	-1.00647
885	-0.03401184	-0.02050781	-1.005295
886	-0.03556824	-0.01876831	-1.007782
887	-0.03535461	-0.02011108	-1.006546
888	-0.03479004	-0.01785278	-1.013245
889	-0.03312683	-0.01757812	-1.010193
890	-0.03407288	-0.01919556	-1.009628
891	-0.03381348	-0.01940918	-1.009369
892	-0.03411865	-0.01939392	-1.007599
893	-0.03196716	-0.0191803	-1.007782
894	-0.03523254	-0.01774597	-1.007217
895	-0.03399658	-0.02049255	-1.006454
896	-0.03440857	-0.01986694	-1.008499
897	-0.03289795	-0.02087402	-1.008331
898	-0.03535461	-0.01795959	-1.008728
899	-0.03355408	-0.01966858	-1.008011
900	-0.0337677	-0.01861572	-1.007111
901	-0.03161621	-0.01832581	-1.006729
902	-0.03396606	-0.01986694	-1.005585
903	-0.03381348	-0.01922607	-1.008148
904	-0.03596497	-0.01954651	-1.007187
905	-0.03515625	-0.02030945	-1.008789
906	-0.03620911	-0.01901245	-1.008209
907	-0.03286743	-0.01945496	-1.006653
908	-0.03477478	-0.01913452	-1.006607
909	-0.03497314	-0.01890564	-1.007324
910	-0.03623962	-0.01951599	-1.007904
911	-0.03131104	-0.01806641	-1.007721
912	-0.03440857	-0.02000427	-1.008194
913	-0.03465271	-0.01971436	-1.008301
914	-0.03414917	-0.01928711	-1.00946
915	-0.03459167	-0.01808167	-1.008759
916	-0.0337677	-0.01998901	-1.007309
917	-0.03578186	-0.01844788	-1.008667
918	-0.03434753	-0.0189209	-1.008392
919	-0.03668213	-0.02009583	-1.008423
920	-0.03346252	-0.01950073	-1.005569
921	-0.03413391	-0.01960754	-1.004868
922	-0.03399658	-0.01966858	-1.006638
923	-0.03338623	-0.01776123	-1.007034
924	-0.03462219	-0.01878357	-1.007904
925	-0.03456116	-0.02044678	-1.007996
926	-0.03399658	-0.02078247	-1.00708
927	-0.03302002	-0.01687622	-1.007294
928	-0.03634644	-0.02011108	-1.007721
929	-0.03443909	-0.01928711	-1.007782
930	-0.03503418	-0.01986694	-1.007843
931	-0.03401184	-0.01708984	-1.006042
932	-0.034729	-0.02067566	-1.007278
933	-0.03469849	-0.01985168	-1.007385
934	-0.03349304	-0.02003479	-1.007172
935	-0.03541565	-0.01782227	-1.008316
936	-0.0342865	-0.0191803	-1.00766
937	-0.03219604	-0.0181427	-1.008362
938	-0.03395081	-0.0193634	-1.007187
939	-0.0358429	-0.01800537	-1.007584
940	-0.03433228	-0.01974487	-1.006332
941	-0.03544617	-0.01722717	-1.006882
942	-0.03495789	-0.01939392	-1.006714
943	-0.03497314	-0.01959229	-1.008209
944	-0.03582764	-0.01811218	-1.007828
945	-0.03379822	-0.01896667	-1.007401
946	-0.03404236	-0.01843262	-1.006912
947	-0.0335083	-0.01731873	-1.009384
948	-0.03553772	-0.01835632	-1.010345
949	-0.03620911	-0.02076721	-1.00824
950	-0.0375061	-0.01805115	-1.007202
951	-0.03208923	-0.01878357	-1.007751
952	-0.0353241	-0.02122498	-1.006821
953	-0.03459167	-0.01940918	-1.006271
954	-0.03292847	-0.02073669	-1.006241
955	-0.03619385	-0.02009583	-1.007584
956	-0.03355408	-0.01861572	-1.00882
957	-0.03077698	-0.01878357	-1.005386
958	-0.03500366	-0.01832581	-1.007324
959	-0.03541565	-0.01864624	-1.006393
960	-0.03572083	-0.01766968	-1.006302
961	-0.03642273	-0.0191803	-1.008301
962	-0.03477478	-0.02041626	-1.006287
963	-0.03387451	-0.01922607	-1.00798
964	-0.03291321	-0.01795959	-1.009262
965	-0.03417969	-0.01945496	-1.007782
966	-0.0355835	-0.01959229	-1.006226
967	-0.03266907	-0.01931763	-1.00766
968	-0.03450012	-0.01913452	-1.005905
969	-0.03526306	-0.01998901	-1.005844
970	-0.03541565	-0.01983643	-1.007385
971	-0.03477478	-0.02137756	-1.007401
972	-0.03639221	-0.01977539	-1.008041
973	-0.0340271	-0.01948547	-1.00705
974	-0.03540039	-0.0199585	-1.007645
975	-0.03305054	-0.01872253	-1.006607
976	-0.03337097	-0.01777649	-1.008179
977	-0.03289795	-0.01678467	-1.007446
978	-0.03382874	-0.01963806	-1.007339
979	-0.03424072	-0.0201416	-1.009995
980	-0.03378296	-0.01991272	-1.00618
981	-0.03288269	-0.01849365	-1.007828
982	-0.03208923	-0.02119446	-1.005875
983	-0.03398132	-0.01850891	-1.006195
984	-0.03607178	-0.0191803	-1.007767
985	-0.0352478	-0.01820374	-1.007751
986	-0.03605652	-0.01824951	-1.008911
987	-0.0369873	-0.01928711	-1.005859
988	-0.03489685	-0.01837158	-1.005737
989	-0.03450012	-0.01997375	-1.00676
990	-0.03483582	-0.01828003	-1.00708
991	-0.03471375	-0.01928711	-1.006561
992	-0.03347778	-0.0202179	-1.006546
993	-0.03578186	-0.01777649	-1.006393
994	-0.03507996	-0.01835632	-1.006485
995	-0.03443909	-0.01776123	-1.00798
996	-0.03387451	-0.01879883	-1.008469
997	-0.03392029	-0.01843262	-1.007736
998	-0.03320312	-0.01983643	-1.008591
999	-0.0357666	-0.01916504	-1.007065
1000	-0.03596497	-0.01835632	-1.006943
1001	-0.03407288	-0.01966858	-1.006989
1002	-0.03408813	-0.01870728	-1.007568
1003	-0.03401184	-0.01789856	-1.006638
1004	-0.03468323	-0.01950073	-1.007523
1005	-0.03337097	-0.01876831	-1.007462
1006	-0.03390503	-0.01895142	-1.007523
1007	-0.03561401	-0.01956177	-1.011871
1008	-0.0358429	-0.01885986	-1.014526
1009	-0.03738403	-0.01808167	-1.013962
1010	-0.03556824	-0.01899719	-1.013
1011	-0.03396606	-0.0181427	-1.011353
1012	-0.03277588	-0.01856995	-1.012741
1013	-0.03456116	-0.01876831	-1.011627
1014	-0.03489685	-0.01878357	-1.00972
1015	-0.03581238	-0.01776123	-1.006882
1016	-0.03549194	-0.01942444	-1.006973
1017	-0.03282166	-0.01815796	-1.007935
1018	-0.03410339	-0.02081299	-1.007843
1019	-0.03492737	-0.02024841	-1.008194
1020	-0.03442383	-0.01901245	-1.007004
1021	-0.03448486	-0.0191803	-1.007294
1022	-0.03553772	-0.01937866	-1.007401
1023	-0.03248596	-0.01820374	-1.00737
1024	-0.03349304	-0.01860046	-1.00737
1025	-0.03424072	-0.01776123	-1.004745
1026	-0.03561401	-0.01672363	-1.007263
1027	-0.03344727	-0.01887512	-1.005539
1028	-0.03372192	-0.02000427	-1.006592
1029	-0.03198242	-0.01785278	-1.008591
1030	-0.034729	-0.01750183	-1.007492
1031	-0.03315735	-0.01948547	-1.007355
1032	-0.03433228	-0.01756287	-1.007156
1033	-0.03547668	-0.01860046	-1.007828
1034	-0.03204346	-0.01809692	-1.006958
1035	-0.03540039	-0.01832581	-1.008362
1036	-0.03375244	-0.0198822	-1.00621
1037	-0.03295898	-0.01882935	-1.007751
1038	-0.03492737	-0.01916504	-1.006989
1039	-0.03405762	-0.01898193	-1.006973
1040	-0.03555298	-0.01881409	-1.004532
1041	-0.03405762	-0.01809692	-1.007156
1042	-0.0340271	-0.01734924	-1.007263
1043	-0.03633118	-0.02005005	-1.00769
1044	-0.03388977	-0.02075195	-1.008865
1045	-0.03459167	-0.01997375	-1.008804
1046	-0.03424072	-0.01861572	-1.007401
1047	-0.03355408	-0.01959229	-1.006912
1048	-0.03530884	-0.01878357	-1.007965
1049	-0.03388977	-0.02061462	-1.008347
1050	-0.03381348	-0.0178833	-1.006104
1051	-0.03283691	-0.01924133	-1.005554
1052	-0.03404236	-0.0196991	-1.005569
1053	-0.03691101	-0.01826477	-1.007294
1054	-0.03518677	-0.02087402	-1.007599
1055	-0.0344696	-0.01794434	-1.007065
1056	-0.03468323	-0.01907349	-1.005615
1057	-0.03244019	-0.01870728	-1.007706
1058	-0.03514099	-0.01879883	-1.007416
1059	-0.03440857	-0.0188446	-1.005447
1060	-0.03414917	-0.01913452	-1.005371
1061	-0.03346252	-0.01872253	-1.005341
1062	-0.03512573	-0.01768494	-1.005676
1063	-0.03517151	-0.01907349	-1.007614
1064	-0.03488159	-0.01849365	-1.006607
1065	-0.03504944	-0.01968384	-1.007858
1066	-0.03430176	-0.01905823	-1.007858
1067	-0.0355835	-0.01887512	-1.010941
1068	-0.03427124	-0.01890564	-1.014664
1069	-0.03442383	-0.01916504	-1.013138
1070	-0.0342865	-0.01985168	-1.012985
1071	-0.03385925	-0.01805115	-1.013153
1072	-0.03614807	-0.01986694	-1.012985
1073	-0.03401184	-0.01838684	-1.010025
1074	-0.03443909	-0.01878357	-1.00914
1075	-0.0332489	-0.01838684	-1.007385
1076	-0.03237915	-0.01797485	-1.008133
1077	-0.03381348	-0.01957703	-1.007095
1078	-0.03507996	-0.0189209	-1.007843
1079	-0.03347778	-0.02148438	-1.007843
1080	-0.03143311	-0.01864624	-1.008041
1081	-0.03370667	-0.02095032	-1.007523
1082	-0.03544617	-0.01992798	-1.007416
1083	-0.03552246	-0.01937866	-1.009125
1084	-0.03347778	-0.01986694	-1.007736
1085	-0.03439331	-0.01716614	-1.007584
1086	-0.03330994	-0.0198822	-1.005844
1087	-0.03347778	-0.01937866	-1.006943
1088	-0.0329895	-0.0196228	-1.007477
1089	-0.03424072	-0.01904297	-1.008453
1090	-0.03451538	-0.01976013	-1.00592
1091	-0.03346252	-0.01914978	-1.007095
1092	-0.03509521	-0.0176239	-1.008347
1093	-0.0369873	-0.01835632	-1.008408
1094	-0.03256226	-0.01899719	-1.008255
1095	-0.03565979	-0.01669312	-1.006454
1096	-0.03610229	-0.01947021	-1.007629
1097	-0.03424072	-0.0194397	-1.008148
1098	-0.03424072	-0.02061462	-1.006027
1099	-0.0353241	-0.01957703	-1.005524
1100	-0.03427124	-0.01828003	-1.00589
1101	-0.03465271	-0.02037048	-1.00705
1102	-0.03547668	-0.01792908	-1.00766
1103	-0.0348053	-0.01846313	-1.00705
1104	-0.0337677	-0.01972961	-1.006363
1105	-0.03370667	-0.01815796	-1.007004
1106	-0.0327301	-0.01963806	-1.008194
1107	-0.03408813	-0.01979065	-1.006943
1108	-0.03518677	-0.01908875	-1.005096
1109	-0.03421021	-0.01869202	-1.006622
1110	-0.03518677	-0.0189209	-1.009247
1111	-0.03395081	-0.01947021	-1.006866
1112	-0.0350647	-0.01867676	-1.007462
1113	-0.03358459	-0.01763916	-1.007812
1114	-0.03526306	-0.02120972	-1.006622
1115	-0.03421021	-0.01875305	-1.006897
1116	-0.03338623	-0.01844788	-1.007965
1117	-0.0344696	-0.01998901	-1.006882
1118	-0.03445435	-0.01922607	-1.007004
1119	-0.03277588	-0.0181427	-1.005814
1120	-0.03364563	-0.01902771	-1.007278
1121	-0.0352478	-0.0196991	-1.004944
1122	-0.0355835	-0.01922607	-1.006409
1123	-0.03305054	-0.01934814	-1.007721
1124	-0.0345459	-0.01852417	-1.005798
1125	-0.03475952	-0.01785278	-1.007706
1126	-0.03648376	-0.01876831	-1.006683
1127	-0.03536987	-0.01858521	-1.009155
1128	-0.03411865	-0.019104	-1.012833
1129	-0.0340271	-0.01904297	-1.012375
1130	-0.03579712	-0.01922607	-1.010498
1131	-0.03314209	-0.01826477	-1.009964
1132	-0.03489685	-0.01908875	-1.00885
1133	-0.03288269	-0.0186615	-1.007629
1134	-0.03384399	-0.02095032	-1.006088
1135	-0.03260803	-0.02046204	-1.007751
1136	-0.03486633	-0.01957703	-1.005768
1137	-0.03523254	-0.01849365	-1.005249
1138	-0.0352478	-0.01919556	-1.006271
1139	-0.03619385	-0.01887512	-1.008484
1140	-0.03207397	-0.0188446	-1.00676
1141	-0.03364563	-0.01828003	-1.007904
1142	-0.03295898	-0.01834106	-1.007736
1143	-0.03643799	-0.0189209	-1.007797
1144	-0.03465271	-0.02015686	-1.006958
1145	-0.03421021	-0.01795959	-1.008072
1146	-0.03471375	-0.02131653	-1.007767
1147	-0.03466797	-0.01911926	-1.007355
1148	-0.03553772	-0.0196991	-1.00679
1149	-0.0348053	-0.01902771	-1.00885
1150	-0.03489685	-0.01850891	-1.007324
1151	-0.0337677	-0.01930237	-1.007843
1152	-0.03407288	-0.01873779	-1.007294
1153	-0.034729	-0.01837158	-1.008575
1154	-0.03489685	-0.01963806	-1.007095
1155	-0.03477478	-0.01954651	-1.007614
1156	-0.03544617	-0.01953125	-1.007202
1157	-0.03439331	-0.0174408	-1.007355
1158	-0.03411865	-0.01860046	-1.007797
1159	-0.03445435	-0.01850891	-1.006912
1160	-0.03504944	-0.02035522	-1.006165
1161	-0.03559875	-0.01907349	-1.009521
1162	-0.03277588	-0.02008057	-1.006989
1163	-0.03607178	-0.01800537	-1.005951
1164	-0.03334045	-0.01858521	-1.007767
1165	-0.03503418	-0.0189209	-1.007599
1166	-0.03153992	-0.02024841	-1.007675
1167	-0.03614807	-0.01985168	-1.005341
1168	-0.0350647	-0.02018738	-1.006775
1169	-0.03373718	-0.01858521	-1.009125
1170	-0.03520203	-0.01907349	-1.006058
1171	-0.03503418	-0.01863098	-1.007095
1172	-0.03453064	-0.01989746	-1.005585
1173	-0.03408813	-0.01931763	-1.006424
1174	-0.03500366	-0.01922607	-1.009613
1175	-0.03320312	-0.01863098	-1.004913
1176	-0.03477478	-0.01994324	-1.007523
1177	-0.03245544	-0.01728821	-1.007629
1178	-0.03442383	-0.02046204	-1.006958
1179	-0.03581238	-0.01953125	-1.008102
1180	-0.03460693	-0.01928711	-1.007645
1181	-0.03379822	-0.0196228	-1.007965
1182	-0.03425598	-0.02069092	-1.00853
1183	-0.03347778	-0.01828003	-1.006546
1184	-0.03477478	-0.01966858	-1.006912
1185	-0.0337677	-0.01983643	-1.006821
1186	-0.03303528	-0.01899719	-1.008987
1187	-0.03338623	-0.01947021	-1.007568
1188	-0.03411865	-0.01730347	-1.014023
1189	-0.03361511	-0.02122498	-1.013596
1190	-0.03540039	-0.01831055	-1.014053
1191	-0.03340149	-0.01831055	-1.012192
1192	-0.03536987	-0.01701355	-1.010712
1193	-0.03437805	-0.01889038	-1.009903
1194	-0.03309631	-0.01783752	-1.009308
1195	-0.03318787	-0.01916504	-1.008255
1196	-0.03555298	-0.01945496	-1.009598
1197	-0.03367615	-0.01834106	-1.00737
1198	-0.03669739	-0.01997375	-1.009354
1199	-0.03645325	-0.01777649	-1.009094
1200	-0.03465271	-0.0184021	-1.005981
1201	-0.03442383	-0.01838684	-1.007294
1202	-0.03521729	-0.02029419	-1.010742
1203	-0.03433228	-0.01959229	-1.013687
1204	-0.03404236	-0.01982117	-1.013565
1205	-0.03329468	-0.01878357	-1.014389
1206	-0.0332489	-0.01779175	-1.011566
1207	-0.03421021	-0.02020264	-1.012253
1208	-0.03253174	-0.02023315	-1.010864
1209	-0.03334045	-0.01889038	-1.008331
1210	-0.03408813	-0.0184021	-1.009521
1211	-0.03387451	-0.02064514	-1.007736
1212	-0.03616333	-0.01773071	-1.009354
1213	-0.03361511	-0.02038574	-1.007233
1214	-0.03704834	-0.01902771	-1.006622
1215	-0.03300476	-0.01860046	-1.00618
1216	-0.03390503	-0.01947021	-1.009232
1217	-0.03338623	-0.01956177	-1.006805
1218	-0.03410339	-0.01828003	-1.008102
1219	-0.03782654	-0.02189636	-1.008377
1220	-0.03457642	-0.01841736	-1.007034
1221	-0.03540039	-0.01959229	-1.007172
1222	-0.03430176	-0.01841736	-1.008881
1223	-0.03286743	-0.02114868	-1.008606
1224	-0.03305054	-0.0198822	-1.008514
1225	-0.03601074	-0.01802063	-1.006744
1226	-0.03407288	-0.02043152	-1.007278
1227	-0.03459167	-0.01907349	-1.00856
1228	-0.03343201	-0.01741028	-1.006165
1229	-0.03311157	-0.01942444	-1.005035
1230	-0.03477478	-0.01989746	-1.008163
1231	-0.03474426	-0.01916504	-1.006409
1232	-0.03349304	-0.01826477	-1.007538
1233	-0.03588867	-0.01701355	-1.006317
1234	-0.03329468	-0.01806641	-1.007767
1235	-0.03334045	-0.01945496	-1.00737
1236	-0.03474426	-0.01904297	-1.006424
1237	-0.03407288	-0.01979065	-1.00705
1238	-0.03363037	-0.02153015	-1.006088
1239	-0.03361511	-0.01980591	-1.006699
1240	-0.0333252	-0.01882935	-1.008179
1241	-0.03405762	-0.01878357	-1.010162
1242	-0.03285217	-0.01972961	-1.014175
1243	-0.03349304	-0.01889038	-1.012604
1244	-0.03453064	-0.01747131	-1.012726
1245	-0.03309631	-0.0181427	-1.010315
1246	-0.03474426	-0.01777649	-1.009644
1247	-0.03559875	-0.02026367	-1.009109
1248	-0.03573608	-0.0198822	-1.01004
1249	-0.03395081	-0.01882935	-1.009842
1250	-0.03375244	-0.01971436	-1.00563
1251	-0.03317261	-0.01776123	-1.006546
1252	-0.0328064	-0.01850891	-1.008957
1253	-0.03338623	-0.01657104	-1.00708
1254	-0.03372192	-0.02041626	-1.008453
1255	-0.03300476	-0.01898193	-1.007248
1256	-0.03553772	-0.02084351	-1.010101
1257	-0.03515625	-0.0184021	-1.008774
1258	-0.03460693	-0.01786804	-1.010025
1259	-0.03424072	-0.02001953	-1.008377
1260	-0.03375244	-0.019104	-1.006271
1261	-0.03599548	-0.01797485	-1.008179
1262	-0.03497314	-0.01989746	-1.008224
1263	-0.03233337	-0.01855469	-1.008606
1264	-0.03507996	-0.01937866	-1.008682
1265	-0.03385925	-0.02124023	-1.008636
1266	-0.03588867	-0.0178833	-1.006485
1267	-0.03410339	-0.01812744	-1.006439
1268	-0.03427124	-0.01802063	-1.007523
1269	-0.03421021	-0.01937866	-1.006638
1270	-0.03251648	-0.01783752	-1.007614
1271	-0.03720093	-0.01876831	-1.00795
1272	-0.03507996	-0.01869202	-1.004608
1273	-0.03274536	-0.01721191	-1.008011
1274	-0.03262329	-0.01670837	-1.007126
1275	-0.03396606	-0.01855469	-1.007172
1276	-0.03541565	-0.01893616	-1.007645
1277	-0.03393555	-0.01879883	-1.007095
1278	-0.03439331	-0.01831055	-1.007416
1279	-0.03346252	-0.0177002	-1.009003
1280	-0.03517151	-0.02122498	-1.007904
1281	-0.03507996	-0.01811218	-1.00531
1282	-0.03610229	-0.01937866	-1.007736
1283	-0.03657532	-0.01860046	-1.00708
1284	-0.03434753	-0.01971436	-1.006012
1285	-0.03715515	-0.01795959	-1.008636
1286	-0.03379822	-0.01928711	-1.005524
1287	-0.03407288	-0.01846313	-1.006271
1288	-0.03445435	-0.01852417	-1.006592
1289	-0.03408813	-0.01947021	-1.005173
1290	-0.03649902	-0.01759338	-1.008057
1291	-0.03352356	-0.01876831	-1.008682
1292	-0.03436279	-0.01751709	-1.008698
1293	-0.03372192	-0.01864624	-1.006134
1294	-0.03556824	-0.01939392	-1.008606
1295	-0.03419495	-0.0178833	-1.008118
1296	-0.03369141	-0.0189209	-1.005768
1297	-0.03544617	-0.0188446	-1.006271
1298	-0.03462219	-0.01828003	-1.006119
1299	-0.03453064	-0.01676941	-1.007843
1300	-0.03411865	-0.01602173	-1.006378
1301	-0.03363037	-0.01756287	-1.007141
1302	-0.03121948	-0.0198822	-1.006561
1303	-0.03549194	-0.01951599	-1.007309
1304	-0.03450012	-0.01873779	-1.008118
1305	-0.03410339	-0.01890564	-1.007401
1306	-0.03269958	-0.01873779	-1.006943
1307	-0.03361511	-0.01724243	-1.007721
1308	-0.03468323	-0.01919556	-1.013458
1309	-0.03372192	-0.01820374	-1.013626
1310	-0.03677368	-0.01898193	-1.013763
1311	-0.03437805	-0.01730347	-1.012833
1312	-0.03451538	-0.01704407	-1.011398
1313	-0.03469849	-0.01864624	-1.009827
1314	-0.03466797	-0.0165863	-1.008911
1315	-0.03474426	-0.01818848	-1.007568
1316	-0.03677368	-0.01786804	-1.008942
1317	-0.03530884	-0.02041626	-1.006989
1318	-0.03425598	-0.01904297	-1.007263
1319	-0.03315735	-0.01679993	-1.006485
1320	-0.03436279	-0.01803589	-1.006546
1321	-0.03504944	-0.01855469	-1.006485
1322	-0.03730774	-0.01782227	-1.005707
1323	-0.03465271	-0.01829529	-1.007919
1324	-0.03500366	-0.01849365	-1.0065
1325	-0.03340149	-0.0171814	-1.008942
1326	-0.03381348	-0.01815796	-1.006439
1327	-0.03257751	-0.01939392	-1.007874
1328	-0.03395081	-0.01844788	-1.006439
1329	-0.03666687	-0.01698303	-1.004395
1330	-0.03482056	-0.01803589	-1.008133
1331	-0.03234863	-0.01773071	-1.007355
1332	-0.03507996	-0.01795959	-1.006302
1333	-0.03587341	-0.01759338	-1.006561
1334	-0.03451538	-0.01803589	-1.006973
1335	-0.03450012	-0.01934814	-1.007523
1336	-0.03427124	-0.01739502	-1.008331
1337	-0.03437805	-0.01731873	-1.006577
1338	-0.03527832	-0.01849365	-1.006287
1339	-0.03604126	-0.01678467	-1.007797
1340	-0.0352478	-0.01597595	-1.006424
1341	-0.03422546	-0.01939392	-1.006836
1342	-0.03450012	-0.01934814	-1.008148
1343	-0.03646851	-0.01911926	-1.007278
1344	-0.03483582	-0.01823425	-1.00824
1345	-0.03294373	-0.02026367	-1.004791
1346	-0.03361511	-0.01914978	-1.004608
1347	-0.03463745	-0.02030945	-1.007019
1348	-0.03355408	-0.01678467	-1.007294
1349	-0.03251648	-0.01947021	-1.006165
1350	-0.03497314	-0.01794434	-1.006195
1351	-0.03541565	-0.01799011	-1.00885
1352	-0.03514099	-0.01899719	-1.006546
1353	-0.03512573	-0.02081299	-1.006332
1354	-0.0337677	-0.01907349	-1.005936
1355	-0.03460693	-0.01934814	-1.00824
1356	-0.0345459	-0.01808167	-1.005936
1357	-0.03491211	-0.01872253	-1.005768
1358	-0.03424072	-0.01980591	-1.007858
1359	-0.0340271	-0.02008057	-1.00705
1360	-0.03477478	-0.01960754	-1.005844
1361	-0.03410339	-0.01980591	-1.005447
1362	-0.03656006	-0.01864624	-1.004715
1363	-0.03314209	-0.01838684	-1.006195
1364	-0.03596497	-0.01860046	-1.005524
1365	-0.03637695	-0.01895142	-1.006607
1366	-0.03128052	-0.01844788	-1.005951
1367	-0.03601074	-0.01826477	-1.007645
1368	-0.03433228	-0.01724243	-1.011658
1369	-0.03405762	-0.01850891	-1.009598
1370	-0.03527832	-0.02011108	-1.009079
1371	-0.03671265	-0.01849365	-1.0065
1372	-0.03361511	-0.02017212	-1.005905
1373	-0.03475952	-0.0194397	-1.007141
1374	-0.03279114	-0.01766968	-1.006912
1375	-0.03291321	-0.01957703	-1.006989
1376	-0.03417969	-0.02056885	-1.005737
1377	-0.03317261	-0.02012634	-1.008194
1378	-0.03337097	-0.01899719	-1.009109
1379	-0.0353241	-0.01997375	-1.006271
1380	-0.03305054	-0.0198822	-1.00676
1381	-0.03451538	-0.01977539	-1.009323
1382	-0.03259277	-0.01930237	-1.004944
1383	-0.03573608	-0.01713562	-1.006775
1384	-0.03361511	-0.01950073	-1.007736
1385	-0.03451538	-0.01818848	-1.007095
1386	-0.03285217	-0.02038574	-1.006714
1387	-0.03501892	-0.01841736	-1.006638
1388	-0.03601074	-0.01960754	-1.007339
1389	-0.0344696	-0.01911926	-1.006638
1390	-0.03367615	-0.02017212	-1.005905
1391	-0.03494263	-0.02027893	-1.007507
1392	-0.03436279	-0.01934814	-1.007355
1393	-0.03509521	-0.01963806	-1.006256
1394	-0.03543091	-0.01914978	-1.008835
1395	-0.03553772	-0.01983643	-1.011902
1396	-0.03486633	-0.01940918	-1.015091
1397	-0.03509521	-0.01686096	-1.012863
1398	-0.03369141	-0.01937866	-1.011398
1399	-0.034729	-0.01785278	-1.008423
1400	-0.03582764	-0.01860046	-1.01062
1401	-0.03359985	-0.0188446	-1.007614
1402	-0.0333252	-0.01847839	-1.009323
1403	-0.03379822	-0.01722717	-1.00795
1404	-0.03381348	-0.01847839	-1.007935
1405	-0.03340149	-0.01716614	-1.00824
1406	-0.03326416	-0.01980591	-1.006424
1407	-0.03384399	-0.0171051	-1.008789
1408	-0.03445435	-0.01820374	-1.006409
1409	-0.03456116	-0.01930237	-1.00647
1410	-0.03395081	-0.01730347	-1.006302
1411	-0.03419495	-0.0189209	-1.006973
1412	-0.03451538	-0.01860046	-1.006958
1413	-0.03388977	-0.01948547	-1.006195
1414	-0.03495789	-0.01797485	-1.007324
1415	-0.03437805	-0.01893616	-1.008438
1416	-0.03457642	-0.01853943	-1.006165
1417	-0.03408813	-0.01957703	-1.009079
1418	-0.03341675	-0.01982117	-1.007431
1419	-0.03443909	-0.01690674	-1.007462
1420	-0.03495789	-0.01895142	-1.00705
1421	-0.03631592	-0.02192688	-1.00647
1422	-0.03431702	-0.02113342	-1.006317
1423	-0.03327942	-0.01872253	-1.008026
1424	-0.03549194	-0.02067566	-1.00853
1425	-0.03486633	-0.01860046	-1.007736
1426	-0.03379822	-0.01913452	-1.008759
1427	-0.03538513	-0.01820374	-1.007935
1428	-0.03492737	-0.01956177	-1.011703
1429	-0.03430176	-0.02003479	-1.009552
1430	-0.03335571	-0.0178833	-1.009583
1431	-0.03353882	-0.01824951	-1.010269
1432	-0.03381348	-0.01951599	-1.006927
1433	-0.03572083	-0.01872253	-1.007095
1434	-0.03392029	-0.019104	-1.008575
1435	-0.03587341	-0.01977539	-1.007187
1436	-0.03468323	-0.01779175	-1.007889
1437	-0.03422546	-0.01927185	-1.006226
1438	-0.03549194	-0.0166626	-1.004623
1439	-0.03422546	-0.01802063	-1.006119
1440	-0.03448486	-0.0191803	-1.005249
1441	-0.03414917	-0.01930237	-1.00708
1442	-0.03474426	-0.02093506	-1.009171
1443	-0.03370667	-0.01956177	-1.007889
1444	-0.03443909	-0.01875305	-1.007263
1445	-0.03381348	-0.01774597	-1.006821
1446	-0.03448486	-0.01864624	-1.007477
1447	-0.03448486	-0.02001953	-1.006607
1448	-0.03401184	-0.01879883	-1.006531
1449	-0.03588867	-0.01879883	-1.006592
1450	-0.03425598	-0.01959229	-1.008133
1451	-0.03436279	-0.01638794	-1.008316
1452	-0.03396606	-0.01841736	-1.0065
1453	-0.03561401	-0.02035522	-1.00531
1454	-0.03358459	-0.01930237	-1.006866
1455	-0.03425598	-0.01864624	-1.007416
1456	-0.03341675	-0.01986694	-1.005249
1457	-0.03344727	-0.01835632	-1.009323
1458	-0.03504944	-0.01992798	-1.012314
1459	-0.03666687	-0.01989746	-1.014465
1460	-0.03439331	-0.01771545	-1.012009
1461	-0.03483582	-0.01896667	-1.01178
1462	-0.0358429	-0.01960754	-1.008942
1463	-0.03300476	-0.02006531	-1.011261
1464	-0.0349884	-0.01751709	-1.007935
1465	-0.03315735	-0.01786804	-1.007568
1466	-0.0342865	-0.01846313	-1.008896
1467	-0.03440857	-0.01919556	-1.007141
1468	-0.03695679	-0.01858521	-1.007385
1469	-0.03457642	-0.02037048	-1.008102
1470	-0.03567505	-0.02050781	-1.005463
1471	-0.03308105	-0.01966858	-1.007553
1472	-0.03314209	-0.01942444	-1.009811
1473	-0.03407288	-0.01820374	-1.007523
1474	-0.03364563	-0.01852417	-1.007919
1475	-0.03462219	-0.02006531	-1.007263
1476	-0.03677368	-0.01872253	-1.006973
1477	-0.03494263	-0.01954651	-1.007782
1478	-0.03465271	-0.01800537	-1.008133
1479	-0.03460693	-0.01803589	-1.007324
1480	-0.03565979	-0.01809692	-1.006485
1481	-0.03367615	-0.01945496	-1.007339
1482	-0.03335571	-0.01963806	-1.00589
1483	-0.03321838	-0.01782227	-1.005173
1484	-0.03504944	-0.0198822	-1.005524
1485	-0.0357666	-0.0181427	-1.006546
1486	-0.03451538	-0.01947021	-1.008362
1487	-0.03334045	-0.01873779	-1.01001
1488	-0.03666687	-0.02052307	-1.011932
1489	-0.03553772	-0.01953125	-1.01004
1490	-0.0362854	-0.01959229	-1.008484
1491	-0.0348053	-0.02044678	-1.009705
1492	-0.03434753	-0.01881409	-1.006989
1493	-0.03659058	-0.01786804	-1.008438
1494	-0.03443909	-0.01953125	-1.006424
1495	-0.03433228	-0.01802063	-1.00798
1496	-0.03395081	-0.01872253	-1.007629
1497	-0.03378296	-0.02076721	-1.006973
1498	-0.03465271	-0.01901245	-1.00885
1499	-0.0337677	-0.01982117	-1.007843
1500	-0.03607178	-0.01979065	-1.007706
1501	-0.03483582	-0.0196991	-1.006577
1502	-0.03427124	-0.01875305	-1.006088
1503	-0.03436279	-0.01835632	-1.006424
1504	-0.03309631	-0.01956177	-1.008438
1505	-0.03274536	-0.01759338	-1.006866
1506	-0.03448486	-0.01953125	-1.005981
1507	-0.03575134	-0.01989746	-1.007065
1508	-0.03469849	-0.01751709	-1.006805
1509	-0.03356934	-0.02148438	-1.006332
1510	-0.03204346	-0.02008057	-1.006271
1511	-0.03512573	-0.02084351	-1.007339
1512	-0.0349884	-0.01956177	-1.005554
1513	-0.0349884	-0.02027893	-1.006958
1514	-0.03805542	-0.01660156	-1.007401
1515	-0.03688049	-0.01954651	-1.008377
1516	-0.03465271	-0.01820374	-1.005997
1517	-0.0333252	-0.02131653	-1.006668
1518	-0.03416443	-0.01881409	-1.007553
1519	-0.03369141	-0.01780701	-1.007614
1520	-0.03511047	-0.01954651	-1.007462
1521	-0.03695679	-0.01890564	-1.006714
1522	-0.03497314	-0.01959229	-1.006073
1523	-0.037323	-0.01922607	-1.004547
1524	-0.03356934	-0.01831055	-1.004562
1525	-0.03611755	-0.02119446	-1.007889
1526	-0.03395081	-0.01907349	-1.006287
1527	-0.0344696	-0.01928711	-1.008408
1528	-0.03492737	-0.01940918	-1.009003
1529	-0.03361511	-0.01858521	-1.00708
1530	-0.03289795	-0.02113342	-1.006683
1531	-0.03567505	-0.01950073	-1.00618
1532	-0.03656006	-0.01974487	-1.007675
1533	-0.0340271	-0.01948547	-1.005966
1534	-0.03761292	-0.01919556	-1.006119
1535	-0.03561401	-0.01863098	-1.007278
1536	-0.03396606	-0.01829529	-1.007523
1537	-0.03520203	-0.01927185	-1.006836
1538	-0.03436279	-0.01879883	-1.008621
1539	-0.03445435	-0.019104	-1.00618
1540	-0.03457642	-0.01678467	-1.006454
1541	-0.03572083	-0.02090454	-1.006378
1542	-0.03385925	-0.01907349	-1.007675
1543	-0.03649902	-0.01881409	-1.006134
1544	-0.03421021	-0.01846313	-1.007172
1545	-0.03422546	-0.0186615	-1.007263
1546	-0.03379822	-0.01979065	-1.008102
1547	-0.03620911	-0.01963806	-1.008591
1548	-0.03567505	-0.01977539	-1.012604
1549	-0.03318787	-0.01768494	-1.008194
1550	-0.03384399	-0.01953125	-1.008163
1551	-0.03451538	-0.01856995	-1.007355
1552	-0.03361511	-0.01925659	-1.008453
1553	-0.03399658	-0.01852417	-1.006836
1554	-0.0344696	-0.01879883	-1.007919
1555	-0.03291321	-0.01950073	-1.007431
1556	-0.03225708	-0.01931763	-1.006409
1557	-0.03456116	-0.01899719	-1.008102
1558	-0.03608704	-0.01872253	-1.007233
1559	-0.03544617	-0.01914978	-1.007278
1560	-0.03684998	-0.01905823	-1.005524
1561	-0.03404236	-0.02003479	-1.008255
1562	-0.03327942	-0.01832581	-1.007233
1563	-0.0344696	-0.02035522	-1.007965
1564	-0.03518677	-0.01899719	-1.00798
1565	-0.03353882	-0.01802063	-1.008774
1566	-0.0344696	-0.01950073	-1.007599
1567	-0.03488159	-0.01905823	-1.005295
1568	-0.03533936	-0.01972961	-1.006622
1569	-0.03546143	-0.01881409	-1.007599
1570	-0.03381348	-0.0191803	-1.006561
1571	-0.03411865	-0.0196991	-1.007263
1572	-0.03448486	-0.01869202	-1.005447
1573	-0.03567505	-0.01852417	-1.006622
1574	-0.03468323	-0.01895142	-1.007019
1575	-0.03401184	-0.01925659	-1.007462
1576	-0.03546143	-0.0199585	-1.00676
1577	-0.03549194	-0.01828003	-1.00708
1578	-0.03555298	-0.01989746	-1.008316
1579	-0.03634644	-0.01870728	-1.010712
1580	-0.03601074	-0.01927185	-1.007187
1581	-0.0350647	-0.02166748	-1.005234
1582	-0.03501892	-0.0206604	-1.007111
1583	-0.03414917	-0.01950073	-1.004425
1584	-0.03578186	-0.0178833	-1.00679
1585	-0.03625488	-0.01968384	-1.00621
1586	-0.03573608	-0.0196228	-1.006699
1587	-0.03463745	-0.01963806	-1.006912
1588	-0.03370667	-0.01829529	-1.006836
1589	-0.03382874	-0.02001953	-1.008972
1590	-0.03701782	-0.01898193	-1.006439
1591	-0.03344727	-0.01954651	-1.006058
1592	-0.03224182	-0.01887512	-1.00618
1593	-0.03352356	-0.01968384	-1.006363
1594	-0.03321838	-0.02020264	-1.005707
1595	-0.03456116	-0.01954651	-1.010941
1596	-0.0342865	-0.01904297	-1.00766
1597	-0.03570557	-0.01841736	-1.005783
1598	-0.03494263	-0.02072144	-1.006866
1599	-0.03256226	-0.01939392	-1.005814
1600	-0.0348053	-0.01950073	-1.006027
1601	-0.0345459	-0.01852417	-1.006149
1602	-0.03511047	-0.01924133	-1.006363
1603	-0.03477478	-0.02012634	-1.005661
1604	-0.03486633	-0.01902771	-1.005768
1605	-0.03610229	-0.01861572	-1.006882
1606	-0.03337097	-0.01898193	-1.007614
1607	-0.03448486	-0.01982117	-1.006042
1608	-0.03459167	-0.01805115	-1.011642
1609	-0.03407288	-0.0189209	-1.009415
1610	-0.03408813	-0.01916504	-1.010208
1611	-0.03494263	-0.01902771	-1.008423
1612	-0.0344696	-0.01821899	-1.006439
1613	-0.03283691	-0.01921082	-1.006088
1614	-0.03570557	-0.01977539	-1.007141
1615	-0.03608704	-0.01806641	-1.005157
1616	-0.03465271	-0.01779175	-1.006393
1617	-0.0353241	-0.01878357	-1.006378
1618	-0.03445435	-0.01947021	-1.005768
1619	-0.03352356	-0.01919556	-1.006851
1620	-0.03347778	-0.01885986	-1.007172
1621	-0.03507996	-0.02062988	-1.007889
1622	-0.03474426	-0.01893616	-1.008118
1623	-0.03497314	-0.01976013	-1.007355
1624	-0.03607178	-0.01939392	-1.006378
1625	-0.03289795	-0.01824951	-1.00827
1626	-0.03407288	-0.01702881	-1.00621
1627	-0.03407288	-0.02030945	-1.007568
1628	-0.03561401	-0.01860046	-1.00621
1629	-0.03289795	-0.0186615	-1.006561
1630	-0.0349884	-0.02029419	-1.006958
1631	-0.03419495	-0.01916504	-1.007065
1632	-0.03451538	-0.01902771	-1.00795
1633	-0.03367615	-0.01914978	-1.005905
1634	-0.03381348	-0.01855469	-1.008331
1635	-0.03468323	-0.01850891	-1.012817
1636	-0.03569031	-0.01841736	-1.014191
1637	-0.03608704	-0.01817322	-1.013809
1638	-0.03422546	-0.0196228	-1.011169
1639	-0.03311157	-0.01625061	-1.010574
1640	-0.03482056	-0.01881409	-1.010193
1641	-0.03356934	-0.01957703	-1.008591
1642	-0.03433228	-0.01832581	-1.008377
1643	-0.03529358	-0.01887512	-1.006958
1644	-0.03318787	-0.01954651	-1.007217
1645	-0.03233337	-0.01924133	-1.007507
1646	-0.03323364	-0.01846313	-1.006256
1647	-0.03468323	-0.02055359	-1.005829
1648	-0.03359985	-0.01820374	-1.008087
1649	-0.03366089	-0.01930237	-1.007126
1650	-0.03570557	-0.01832581	-1.008347
1651	-0.03370667	-0.01678467	-1.008331
1652	-0.03460693	-0.01901245	-1.006683
1653	-0.03329468	-0.01968384	-1.009125
1654	-0.03633118	-0.02000427	-1.008194
1655	-0.0322876	-0.0181427	-1.007416
1656	-0.03240967	-0.02099609	-1.00856
1657	-0.0365448	-0.01994324	-1.006943
1658	-0.0322876	-0.01708984	-1.006271
1659	-0.03495789	-0.01901245	-1.005539
1660	-0.0350647	-0.02059937	-1.006317
1661	-0.03503418	-0.01954651	-1.007889
1662	-0.03457642	-0.01942444	-1.007584
1663	-0.03424072	-0.01919556	-1.008133
1664	-0.03282166	-0.01679993	-1.007629
1665	-0.0344696	-0.01815796	-1.007446
1666	-0.03587341	-0.01905823	-1.006088
1667	-0.03659058	-0.02090454	-1.010437
1668	-0.03645325	-0.0165863	-1.013046
1669	-0.0345459	-0.01820374	-1.014145
1670	-0.03451538	-0.01820374	-1.014603
1671	-0.0345459	-0.0173645	-1.010376
1672	-0.03646851	-0.01748657	-1.012146
1673	-0.03445435	-0.01939392	-1.011124
1674	-0.03538513	-0.01927185	-1.011276
1675	-0.03395081	-0.0188446	-1.006378
1676	-0.03405762	-0.01889038	-1.006195
1677	-0.03459167	-0.01832581	-1.008438
1678	-0.03485107	-0.0164032	-1.007172
1679	-0.03631592	-0.01725769	-1.006882
1680	-0.03636169	-0.01904297	-1.007004
1681	-0.0324707	-0.01712036	-1.008514
1682	-0.0348053	-0.01890564	-1.007843
1683	-0.03483582	-0.0196228	-1.007782
1684	-0.03384399	-0.01757812	-1.006531
1685	-0.03373718	-0.02125549	-1.006134
1686	-0.03468323	-0.01911926	-1.00705
1687	-0.03541565	-0.01994324	-1.006775
1688	-0.03570557	-0.01901245	-1.005936
1689	-0.03485107	-0.01913452	-1.006805
1690	-0.03436279	-0.01942444	-1.006531
1691	-0.034729	-0.01951599	-1.008209
1692	-0.03421021	-0.01947021	-1.008789
1693	-0.03347778	-0.01904297	-1.006378
1694	-0.03382874	-0.01795959	-1.007507
1695	-0.0357666	-0.01947021	-1.006241
1696	-0.03636169	-0.0194397	-1.007874
1697	-0.03381348	-0.01760864	-1.006348
1698	-0.03356934	-0.01905823	-1.007172
1699	-0.03601074	-0.01875305	-1.006561
1700	-0.03565979	-0.0184021	-1.00589
1701	-0.0348053	-0.01873779	-1.005798
1702	-0.03497314	-0.01980591	-1.006638
1703	-0.03308105	-0.01948547	-1.005539
1704	-0.03434753	-0.01803589	-1.006241
1705	-0.03276062	-0.01907349	-1.007019
1706	-0.03358459	-0.01976013	-1.008286
1707	-0.03701782	-0.01875305	-1.006622
1708	-0.03381348	-0.01799011	-1.007889
1709	-0.03445435	-0.01950073	-1.004959
1710	-0.03645325	-0.01940918	-1.007217
1711	-0.03607178	-0.01826477	-1.006592
1712	-0.03421021	-0.0198822	-1.006744
1713	-0.03445435	-0.01852417	-1.007462
1714	-0.03569031	-0.01875305	-1.006027
1715	-0.03581238	-0.01817322	-1.006897
1716	-0.03501892	-0.01843262	-1.00737
1717	-0.03344727	-0.01908875	-1.006653
1718	-0.03477478	-0.0194397	-1.006287
1719	-0.03413391	-0.01913452	-1.008591
1720	-0.03610229	-0.01835632	-1.004608
1721	-0.03535461	-0.01823425	-1.006989
1722	-0.03137207	-0.02037048	-1.005966
1723	-0.03488159	-0.01860046	-1.007629
1724	-0.03463745	-0.01823425	-1.005371
1725	-0.03633118	-0.02047729	-1.00766
1726	-0.03421021	-0.01869202	-1.007217
1727	-0.03286743	-0.01902771	-1.009171
1728	-0.0352478	-0.01889038	-1.010925
1729	-0.03308105	-0.01885986	-1.010559
1730	-0.03497314	-0.01998901	-1.008331
1731	-0.03453064	-0.01986694	-1.008057
1732	-0.03445435	-0.02009583	-1.007126
1733	-0.03288269	-0.01817322	-1.008682
1734	-0.03343201	-0.01841736	-1.006805
1735	-0.03572083	-0.01927185	-1.007996
1736	-0.03430176	-0.02000427	-1.00647
1737	-0.03540039	-0.01831055	-1.006485
1738	-0.03366089	-0.01998901	-1.005432
1739	-0.0357666	-0.01728821	-1.007156
1740	-0.03282166	-0.01812744	-1.008316
1741	-0.03535461	-0.01861572	-1.00705
1742	-0.03491211	-0.02008057	-1.007248
1743	-0.03210449	-0.0196228	-1.007385
1744	-0.03523254	-0.02015686	-1.008133
1745	-0.03352356	-0.01858521	-1.007416
1746	-0.03359985	-0.02154541	-1.008774
1747	-0.03477478	-0.01860046	-1.00676
1748	-0.03567505	-0.02032471	-1.008377
1749	-0.03382874	-0.02015686	-1.005341
1750	-0.03489685	-0.01994324	-1.004639
1751	-0.0368042	-0.0202179	-1.006287
1752	-0.03515625	-0.01985168	-1.006409
1753	-0.03555298	-0.01925659	-1.005661
1754	-0.03277588	-0.01954651	-1.009079
1755	-0.03527832	-0.01997375	-1.013245
1756	-0.03375244	-0.01849365	-1.01326
1757	-0.0349884	-0.01913452	-1.013046
1758	-0.0357666	-0.01750183	-1.013016
1759	-0.03511047	-0.01815796	-1.011642
1760	-0.03340149	-0.01828003	-1.008911
1761	-0.03755188	-0.01815796	-1.009842
1762	-0.03311157	-0.02070618	-1.006989
1763	-0.03399658	-0.0171051	-1.00647
1764	-0.03544617	-0.0198822	-1.008713
1765	-0.03616333	-0.01911926	-1.008194
1766	-0.0352478	-0.0181427	-1.007614
1767	-0.03216553	-0.01942444	-1.007767
1768	-0.03529358	-0.01722717	-1.007294
1769	-0.03460693	-0.01931763	-1.00621
1770	-0.0344696	-0.02027893	-1.008362
1771	-0.03422546	-0.019104	-1.007721
1772	-0.03866577	-0.01782227	-1.00676
1773	-0.03515625	-0.01930237	-1.007797
1774	-0.03570557	-0.01828003	-1.007446
1775	-0.03378296	-0.02024841	-1.007401
1776	-0.03434753	-0.01820374	-1.007126
1777	-0.03379822	-0.0191803	-1.008316
1778	-0.03457642	-0.01954651	-1.009583
1779	-0.03546143	-0.01863098	-1.013046
1780	-0.03515625	-0.01922607	-1.015472
1781	-0.03445435	-0.01901245	-1.013794
1782	-0.03569031	-0.01753235	-1.011978
1783	-0.03507996	-0.01856995	-1.011475
1784	-0.03256226	-0.01994324	-1.008636
1785	-0.03567505	-0.0193634	-1.009506
1786	-0.03372192	-0.01818848	-1.006912
1787	-0.03541565	-0.01890564	-1.011368
1788	-0.03414917	-0.01928711	-1.014923
1789	-0.03540039	-0.01844788	-1.013916
1790	-0.03443909	-0.01856995	-1.015579
1791	-0.03425598	-0.0173645	-1.014053
1792	-0.03453064	-0.01667786	-1.012238
1793	-0.03398132	-0.01811218	-1.014984
1794	-0.03166199	-0.01768494	-1.015228
1795	-0.0327301	-0.01841736	-1.012695
1796	-0.03372192	-0.01821899	-1.014282
1797	-0.03451538	-0.01879883	-1.011169
1798	-0.03442383	-0.01876831	-1.009659
1799	-0.03422546	-0.0177002	-1.007904
1800	-0.03521729	-0.01820374	-1.009369
1801	-0.03555298	-0.01786804	-1.008041
1802	-0.03347778	-0.01870728	-1.008804
1803	-0.03424072	-0.0174408	-1.008331
1804	-0.03353882	-0.01887512	-1.008835
1805	-0.03411865	-0.01869202	-1.009064
1806	-0.03500366	-0.01895142	-1.007202
1807	-0.03585815	-0.01930237	-1.007141
1808	-0.03491211	-0.01823425	-1.008392
1809	-0.0357666	-0.0184021	-1.006714
1810	-0.0352478	-0.01927185	-1.006363
1811	-0.03384399	-0.01828003	-1.007248
1812	-0.03451538	-0.01896667	-1.006714
1813	-0.03263855	-0.01811218	-1.006393
1814	-0.03356934	-0.01823425	-1.008575
1815	-0.03434753	-0.02062988	-1.006882
1816	-0.03642273	-0.01805115	-1.008118
1817	-0.03675842	-0.01914978	-1.00592
1818	-0.03492737	-0.02023315	-1.007217
1819	-0.03419495	-0.02113342	-1.007294
1820	-0.03564453	-0.01878357	-1.006821
1821	-0.03463745	-0.02018738	-1.008102
1822	-0.03581238	-0.01828003	-1.007812
1823	-0.03636169	-0.01869202	-1.007416
1824	-0.03262329	-0.01963806	-1.007599
1825	-0.03355408	-0.01858521	-1.005951
1826	-0.03477478	-0.01831055	-1.006531
1827	-0.03327942	-0.01890564	-1.009186
1828	-0.03459167	-0.02082825	-1.008057
1829	-0.03398132	-0.02072144	-1.005173
1830	-0.0333252	-0.01786804	-1.007324
1831	-0.03433228	-0.01957703	-1.006622
1832	-0.03419495	-0.02037048	-1.006119
1833	-0.0322876	-0.01911926	-1.006409
1834	-0.03431702	-0.01861572	-1.007202
1835	-0.03416443	-0.01950073	-1.007538
1836	-0.03308105	-0.0201416	-1.006287
1837	-0.0333252	-0.01889038	-1.006241
1838	-0.03367615	-0.01759338	-1.00502
1839	-0.03591919	-0.02027893	-1.007935
1840	-0.03358459	-0.01771545	-1.007599
1841	-0.03421021	-0.01904297	-1.010284
1842	-0.03479004	-0.02008057	-1.01236
1843	-0.03720093	-0.01774597	-1.013153
1844	-0.03512573	-0.01651001	-1.010651
1845	-0.03456116	-0.01924133	-1.013168
1846	-0.03208923	-0.01831055	-1.009018
1847	-0.03479004	-0.02009583	-1.011703
1848	-0.03311157	-0.01911926	-1.014313
1849	-0.03701782	-0.0186615	-1.01387
1850	-0.03305054	-0.01971436	-1.014282
1851	-0.0333252	-0.01889038	-1.012634
1852	-0.03393555	-0.01646423	-1.010376
1853	-0.03419495	-0.01965332	-1.009232
1854	-0.03337097	-0.01823425	-1.008469
1855	-0.03575134	-0.01698303	-1.007339
1856	-0.03405762	-0.01858521	-1.00798
1857	-0.0353241	-0.0174408	-1.006927
1858	-0.03262329	-0.01905823	-1.008362
1859	-0.03260803	-0.01806641	-1.009613
1860	-0.03497314	-0.01873779	-1.007645
1861	-0.03543091	-0.01863098	-1.007339
1862	-0.03527832	-0.019104	-1.008636
1863	-0.03356934	-0.01957703	-1.009033
1864	-0.03474426	-0.01916504	-1.00943
1865	-0.03300476	-0.02043152	-1.007294
1866	-0.0344696	-0.01797485	-1.008453
1867	-0.03414917	-0.01896667	-1.007797
1868	-0.03343201	-0.01850891	-1.007889
1869	-0.03353882	-0.01826477	-1.007736
1870	-0.03533936	-0.01742554	-1.008347
1871	-0.03459167	-0.01782227	-1.006409
1872	-0.03594971	-0.01803589	-1.007614
1873	-0.03643799	-0.02003479	-1.006134
1874	-0.03285217	-0.01954651	-1.005936
1875	-0.03613281	-0.01905823	-1.007202
1876	-0.03535461	-0.01733398	-1.008804
1877	-0.03387451	-0.01824951	-1.006912
1878	-0.03318787	-0.01768494	-1.006149
1879	-0.03431702	-0.01881409	-1.009109
1880	-0.03320312	-0.01957703	-1.007538
1881	-0.0350647	-0.0193634	-1.006027
1882	-0.0352478	-0.01922607	-1.006226
1883	-0.03663635	-0.01954651	-1.006622
1884	-0.03497314	-0.01948547	-1.007278
1885	-0.03483582	-0.01786804	-1.008087
1886	-0.03471375	-0.02069092	-1.0065
1887	-0.0337677	-0.01896667	-1.006821
1888	-0.03662109	-0.0188446	-1.006256
1889	-0.03417969	-0.01831055	-1.007126
1890	-0.03567505	-0.02024841	-1.007385
1891	-0.03450012	-0.01980591	-1.007263
1892	-0.03474426	-0.01881409	-1.006653
1893	-0.03578186	-0.02027893	-1.006134
1894	-0.03161621	-0.01997375	-1.00769
1895	-0.03590393	-0.02085876	-1.00676
1896	-0.03413391	-0.01852417	-1.005417
1897	-0.03541565	-0.0178833	-1.006683
1898	-0.03517151	-0.01950073	-1.006989
1899	-0.03585815	-0.01831055	-1.007462
1900	-0.03697205	-0.01979065	-1.006134
1901	-0.03433228	-0.02055359	-1.008194
1902	-0.03433228	-0.01934814	-1.00647
1903	-0.03436279	-0.02194214	-1.008102
1904	-0.03614807	-0.02017212	-1.005524
1905	-0.03302002	-0.01913452	-1.008377
1906	-0.03535461	-0.01864624	-1.007721
1907	-0.03463745	-0.01870728	-1.007599
1908	-0.03456116	-0.01803589	-1.012985
1909	-0.03460693	-0.01818848	-1.012497
1910	-0.03482056	-0.01712036	-1.012314
1911	-0.0327301	-0.01852417	-1.010086
1912	-0.03575134	-0.01800537	-1.007599
1913	-0.03620911	-0.01731873	-1.008331
1914	-0.03578186	-0.01829529	-1.007156
1915	-0.03547668	-0.01895142	-1.00647
1916	-0.03144836	-0.01829529	-1.007553
1917	-0.03526306	-0.01828003	-1.007095
1918	-0.03451538	-0.01771545	-1.006577
1919	-0.03262329	-0.01704407	-1.008026
1920	-0.03775024	-0.01838684	-1.006714
1921	-0.03422546	-0.01976013	-1.009781
1922	-0.03483582	-0.01875305	-1.009979
1923	-0.03541565	-0.01878357	-1.01442
1924	-0.03565979	-0.0199585	-1.015121
1925	-0.03492737	-0.01895142	-1.012695
1926	-0.03479004	-0.01907349	-1.011993
1927	-0.03489685	-0.01786804	-1.012283
1928	-0.03401184	-0.01950073	-1.010315
1929	-0.03538513	-0.01924133	-1.008224
1930	-0.03309631	-0.01754761	-1.008194
1931	-0.03482056	-0.01913452	-1.006363
1932	-0.03314209	-0.01927185	-1.00647
1933	-0.03439331	-0.01954651	-1.009933
1934	-0.03620911	-0.01823425	-1.007553
1935	-0.034729	-0.01823425	-1.008453
1936	-0.03489685	-0.01878357	-1.007935
1937	-0.0358429	-0.02061462	-1.00798
1938	-0.03401184	-0.01817322	-1.008347
1939	-0.03297424	-0.02038574	-1.006836
1940	-0.03439331	-0.01838684	-1.007782
1941	-0.0317688	-0.02055359	-1.007584
1942	-0.03405762	-0.01826477	-1.007553
1943	-0.03411865	-0.01905823	-1.008514
1944	-0.03430176	-0.01849365	-1.007309
1945	-0.03474426	-0.01750183	-1.007645
1946	-0.03408813	-0.01925659	-1.007523
1947	-0.03422546	-0.01989746	-1.007507
1948	-0.03395081	-0.01963806	-1.00679
1949	-0.03604126	-0.01826477	-1.007996
1950	-0.034729	-0.01750183	-1.008041
1951	-0.03434753	-0.01966858	-1.00589
1952	-0.03317261	-0.01986694	-1.00856
1953	-0.03422546	-0.01980591	-1.008972
1954	-0.03396606	-0.02119446	-1.008179
1955	-0.03372192	-0.01997375	-1.008713
1956	-0.0337677	-0.02008057	-1.00621
1957	-0.03593445	-0.01875305	-1.00592
1958	-0.03504944	-0.01847839	-1.006958
1959	-0.03474426	-0.02041626	-1.00502
1960	-0.03431702	-0.01806641	-1.007965
1961	-0.03346252	-0.0206604	-1.006943
1962	-0.03486633	-0.02011108	-1.008392
1963	-0.03434753	-0.01826477	-1.005646
1964	-0.03453064	-0.01972961	-1.007385
1965	-0.03512573	-0.01991272	-1.008896
1966	-0.03392029	-0.02038574	-1.006897
1967	-0.03424072	-0.01873779	-1.010803
1968	-0.03594971	-0.02027893	-1.012589
1969	-0.03315735	-0.01922607	-1.012207
1970	-0.03514099	-0.01887512	-1.010666
1971	-0.03414917	-0.01867676	-1.008713
1972	-0.03401184	-0.01754761	-1.008484
1973	-0.03251648	-0.01802063	-1.008255
1974	-0.03382874	-0.01896667	-1.008545
1975	-0.03436279	-0.01817322	-1.007568
1976	-0.03622437	-0.01826477	-1.005234
1977	-0.03582764	-0.01931763	-1.008286
1978	-0.03555298	-0.01759338	-1.007187
1979	-0.03285217	-0.01913452	-1.007797
1980	-0.03549194	-0.01869202	-1.008072
1981	-0.03494263	-0.01921082	-1.00766
1982	-0.03343201	-0.01773071	-1.006989
1983	-0.03553772	-0.01811218	-1.008743
1984	-0.03404236	-0.01885986	-1.00676
1985	-0.03344727	-0.01927185	-1.004593
1986	-0.03582764	-0.01837158	-1.006088
1987	-0.03512573	-0.01872253	-1.007004
1988	-0.03504944	-0.01919556	-1.007172
1989	-0.03462219	-0.019104	-1.008438
1990	-0.03587341	-0.01863098	-1.006668
1991	-0.03450012	-0.01963806	-1.007126
1992	-0.03468323	-0.01858521	-1.006973
1993	-0.03341675	-0.02005005	-1.008911
1994	-0.03479004	-0.01927185	-1.009094
1995	-0.03497314	-0.01997375	-1.012512
1996	-0.03427124	-0.01795959	-1.011658
1997	-0.03509521	-0.01802063	-1.014114
1998	-0.03608704	-0.01925659	-1.012939
1999	-0.03240967	-0.01904297	-1.012253
2000	-0.03358459	-0.01797485	-1.00946
2001	-0.03369141	-0.01852417	-1.0103
2002	-0.03411865	-0.01869202	-1.009476
2003	-0.03335571	-0.01905823	-1.007111
2004	-0.03436279	-0.02020264	-1.00737
2005	-0.03460693	-0.01950073	-1.007629
2006	-0.03390503	-0.01861572	-1.007782
2007	-0.03462219	-0.02178955	-1.008713
2008	-0.03384399	-0.01889038	-1.00885
2009	-0.03334045	-0.02023315	-1.006927
2010	-0.03398132	-0.01907349	-1.006393
2011	-0.03381348	-0.02029419	-1.007004
2012	-0.03504944	-0.01747131	-1.008652
2013	-0.03521729	-0.01953125	-1.009232
2014	-0.03599548	-0.01896667	-1.007523
2015	-0.03334045	-0.02035522	-1.008636
2016	-0.03712463	-0.01861572	-1.007874
2017	-0.03610229	-0.01951599	-1.008316
2018	-0.03552246	-0.02052307	-1.00885
2019	-0.03579712	-0.01913452	-1.013458
2020	-0.03556824	-0.01831055	-1.01358
2021	-0.03511047	-0.01846313	-1.014709
2022	-0.0345459	-0.01908875	-1.012482
2023	-0.03327942	-0.02041626	-1.011856
2024	-0.03312683	-0.01792908	-1.010483
2025	-0.03439331	-0.01817322	-1.010941
2026	-0.03433228	-0.01869202	-1.007568
2027	-0.0342865	-0.01846313	-1.010941
2028	-0.03411865	-0.01844788	-1.010284
2029	-0.0342865	-0.01826477	-1.009201
2030	-0.03424072	-0.01980591	-1.011642
2031	-0.03411865	-0.01937866	-1.007217
2032	-0.03652954	-0.01950073	-1.00708
2033	-0.03430176	-0.02032471	-1.010101
2034	-0.03407288	-0.01864624	-1.015335
2035	-0.03372192	-0.0171814	-1.014481
2036	-0.03469849	-0.01927185	-1.012955
2037	-0.03407288	-0.01951599	-1.013931
2038	-0.03369141	-0.01829529	-1.010757
2039	-0.03318787	-0.01872253	-1.010574
2040	-0.03379822	-0.01913452	-1.008545
2041	-0.03260803	-0.01957703	-1.008148
2042	-0.03475952	-0.01823425	-1.007446
2043	-0.0357666	-0.01800537	-1.00618
2044	-0.03421021	-0.01843262	-1.008591
2045	-0.03268433	-0.01698303	-1.006836
2046	-0.03468323	-0.01831055	-1.006943
2047	-0.03439331	-0.01878357	-1.00769
2048	-0.03204346	-0.01947021	-1.007797
2049	-0.03521729	-0.0202179	-1.009186
2050	-0.03407288	-0.01904297	-1.007584
2051	-0.03427124	-0.01818848	-1.006912
2052	-0.03401184	-0.01701355	-1.00737
2053	-0.03303528	-0.02070618	-1.008347
2054	-0.03416443	-0.01895142	-1.006439
2055	-0.03570557	-0.01789856	-1.00737
2056	-0.03572083	-0.01972961	-1.006577
2057	-0.03555298	-0.0191803	-1.00647
2058	-0.03475952	-0.01913452	-1.006363
2059	-0.03321838	-0.01968384	-1.007828
2060	-0.03646851	-0.02058411	-1.006851
2061	-0.03424072	-0.01898193	-1.006119
2062	-0.0342865	-0.02008057	-1.007812
2063	-0.03590393	-0.01904297	-1.007324
2064	-0.03491211	-0.01794434	-1.00737
2065	-0.03392029	-0.01945496	-1.007248
2066	-0.03225708	-0.01812744	-1.008545
2067	-0.03326416	-0.0194397	-1.009033
2068	-0.03590393	-0.01863098	-1.008057
2069	-0.03422546	-0.01731873	-1.006729
2070	-0.03503418	-0.01843262	-1.008438
2071	-0.03379822	-0.0184021	-1.006546
2072	-0.03555298	-0.01867676	-1.006775
2073	-0.03507996	-0.01940918	-1.008148
2074	-0.03213501	-0.01861572	-1.006638
2075	-0.03651428	-0.01881409	-1.00621
2076	-0.03747559	-0.01834106	-1.007645
2077	-0.03375244	-0.01779175	-1.005524
2078	-0.03370667	-0.01844788	-1.006927
2079	-0.03326416	-0.01873779	-1.008484
2080	-0.03393555	-0.0198822	-1.005844
2081	-0.03390503	-0.01745605	-1.007446
2082	-0.03527832	-0.01960754	-1.007309
2083	-0.03259277	-0.01853943	-1.007355
2084	-0.03437805	-0.01802063	-1.006577
2085	-0.03393555	-0.02052307	-1.007172
2086	-0.03529358	-0.01879883	-1.007904
2087	-0.03369141	-0.0178833	-1.008667
2088	-0.0342865	-0.01853943	-1.01088
2089	-0.0348053	-0.02033997	-1.008865
2090	-0.0329895	-0.01831055	-1.009109
2091	-0.03540039	-0.0196991	-1.009003
2092	-0.03347778	-0.0191803	-1.007797
2093	-0.0344696	-0.01972961	-1.007584
2094	-0.03507996	-0.01828003	-1.007446
2095	-0.03526306	-0.01838684	-1.007095
2096	-0.03475952	-0.01809692	-1.008148
2097	-0.03318787	-0.01924133	-1.005478
2098	-0.03399658	-0.01927185	-1.007446
2099	-0.03503418	-0.01983643	-1.007584
2100	-0.03440857	-0.02055359	-1.006912
2101	-0.03536987	-0.01933289	-1.00827
2102	-0.03355408	-0.01872253	-1.006424
2103	-0.03323364	-0.0196991	-1.005981
2104	-0.03424072	-0.01882935	-1.008987
2105	-0.03846741	-0.02058411	-1.008224
2106	-0.03407288	-0.01794434	-1.007339
2107	-0.03479004	-0.01864624	-1.009155
2108	-0.03495789	-0.01863098	-1.005096
2109	-0.03526306	-0.01922607	-1.006683
2110	-0.03434753	-0.01934814	-1.009842
2111	-0.03523254	-0.01997375	-1.007248
2112	-0.03590393	-0.01834106	-1.007339
2113	-0.03477478	-0.02067566	-1.007675
2114	-0.03419495	-0.01907349	-1.007187
2115	-0.03678894	-0.01747131	-1.007538
2116	-0.0340271	-0.01890564	-1.005402
2117	-0.03421021	-0.02105713	-1.006531
2118	-0.03596497	-0.01860046	-1.006226
2119	-0.03205872	-0.01858521	-1.006058
2120	-0.03536987	-0.01799011	-1.007538
2121	-0.03399658	-0.02075195	-1.007614
2122	-0.03456116	-0.01950073	-1.005798
2123	-0.03492737	-0.01885986	-1.007065
2124	-0.034729	-0.01844788	-1.007126
2125	-0.0358429	-0.01872253	-1.007797
2126	-0.03546143	-0.01925659	-1.00708
2127	-0.03366089	-0.01887512	-1.007019
2128	-0.03440857	-0.02116394	-1.005676
2129	-0.03401184	-0.02024841	-1.00589
2130	-0.03387451	-0.01847839	-1.005936
2131	-0.03393555	-0.01919556	-1.006546
2132	-0.0355835	-0.02104187	-1.00708
2133	-0.03529358	-0.01980591	-1.005081
2134	-0.03633118	-0.02023315	-1.005646
2135	-0.03256226	-0.01985168	-1.006622
2136	-0.03372192	-0.02041626	-1.006073
2137	-0.03533936	-0.01994324	-1.008331
2138	-0.0349884	-0.01979065	-1.007935
2139	-0.03582764	-0.01794434	-1.011841
2140	-0.03509521	-0.01895142	-1.013184
2141	-0.0355835	-0.01683044	-1.015213
2142	-0.03294373	-0.01858521	-1.011063
2143	-0.03422546	-0.01939392	-1.012802
2144	-0.03282166	-0.0196228	-1.009399
2145	-0.0340271	-0.02018738	-1.010086
2146	-0.03204346	-0.01858521	-1.008636
2147	-0.03440857	-0.01881409	-1.011765
2148	-0.03494263	-0.01956177	-1.013565
2149	-0.03224182	-0.01785278	-1.015976
2150	-0.0320282	-0.01792908	-1.011887
2151	-0.03564453	-0.01855469	-1.011368
2152	-0.03283691	-0.01727295	-1.012192
2153	-0.03443909	-0.0191803	-1.013931
2154	-0.03329468	-0.0176239	-1.014435
2155	-0.0332489	-0.01844788	-1.011566
2156	-0.03198242	-0.01849365	-1.012375
2157	-0.03492737	-0.01933289	-1.010956
2158	-0.03295898	-0.0174408	-1.011581
2159	-0.03315735	-0.01756287	-1.009155
2160	-0.03361511	-0.0186615	-1.009628
2161	-0.03347778	-0.01817322	-1.006531
2162	-0.03695679	-0.01913452	-1.006805
2163	-0.03474426	-0.01887512	-1.008224
2164	-0.03448486	-0.01919556	-1.007889
2165	-0.03421021	-0.01911926	-1.007889
2166	-0.03462219	-0.01948547	-1.008163
2167	-0.03417969	-0.01773071	-1.005508
2168	-0.0344696	-0.01960754	-1.008347
2169	-0.03486633	-0.01933289	-1.007324
2170	-0.03416443	-0.01922607	-1.007477
2171	-0.03533936	-0.0193634	-1.007568
2172	-0.0350647	-0.02087402	-1.008713
2173	-0.03361511	-0.01971436	-1.008377
2174	-0.0332489	-0.01837158	-1.007355
2175	-0.034729	-0.01823425	-1.008087
2176	-0.03411865	-0.01890564	-1.008743
2177	-0.03504944	-0.01821899	-1.008636
2178	-0.03475952	-0.02069092	-1.005249
2179	-0.03495789	-0.02008057	-1.008896
2180	-0.034729	-0.01953125	-1.012741
2181	-0.03622437	-0.01898193	-1.009644
2182	-0.03555298	-0.01937866	-1.007004
2183	-0.03422546	-0.01745605	-1.007965
2184	-0.034729	-0.01986694	-1.005997
2185	-0.03460693	-0.01739502	-1.009476
2186	-0.03437805	-0.01902771	-1.006668
2187	-0.03491211	-0.02024841	-1.006546
2188	-0.03395081	-0.01708984	-1.007599
2189	-0.03546143	-0.01766968	-1.006363
2190	-0.03379822	-0.019104	-1.007568
2191	-0.03501892	-0.01942444	-1.007339
2192	-0.03483582	-0.01925659	-1.007401
2193	-0.03547668	-0.02009583	-1.007339
2194	-0.03453064	-0.01853943	-1.00737
2195	-0.03601074	-0.02029419	-1.008026
2196	-0.03393555	-0.01631165	-1.007553
2197	-0.03569031	-0.01916504	-1.005875
2198	-0.03543091	-0.02052307	-1.007294
2199	-0.03356934	-0.01869202	-1.006378
2200	-0.03471375	-0.01922607	-1.00737
2201	-0.03437805	-0.01843262	-1.010147
2202	-0.03401184	-0.01939392	-1.014297
2203	-0.03483582	-0.01841736	-1.015945
2204	-0.034729	-0.01994324	-1.011383
2205	-0.03323364	-0.01789856	-1.013062
2206	-0.03393555	-0.01838684	-1.008636
2207	-0.03349304	-0.01905823	-1.009506
2208	-0.0320282	-0.0202179	-1.007507
2209	-0.03533936	-0.01779175	-1.008881
2210	-0.03268433	-0.01815796	-1.007294
2211	-0.03578186	-0.01766968	-1.007843
2212	-0.03492737	-0.01809692	-1.006714
2213	-0.0316925	-0.01899719	-1.006119
2214	-0.03414917	-0.0193634	-1.007782
2215	-0.03561401	-0.01960754	-1.009766
2216	-0.03337097	-0.01824951	-1.009064
2217	-0.03462219	-0.0198822	-1.006668
2218	-0.03425598	-0.02003479	-1.008163
2219	-0.03349304	-0.01773071	-1.008087
2220	-0.03501892	-0.01931763	-1.008331
2221	-0.03579712	-0.01924133	-1.009064
2222	-0.0350647	-0.01808167	-1.006622
2223	-0.03422546	-0.01953125	-1.006866
2224	-0.03578186	-0.01875305	-1.006119
2225	-0.03501892	-0.0173645	-1.007507
2226	-0.03672791	-0.01942444	-1.006485
2227	-0.03282166	-0.01852417	-1.006546
2228	-0.0358429	-0.01934814	-1.006088
2229	-0.03436279	-0.01843262	-1.009781
2230	-0.03445435	-0.01976013	-1.00824
2231	-0.03343201	-0.01893616	-1.008072
2232	-0.03549194	-0.01905823	-1.006989
2233	-0.03741455	-0.01812744	-1.01004
2234	-0.03590393	-0.02278137	-1.004089
2235	-0.0337677	-0.01940918	-1.007996
2236	-0.037323	-0.0153656	-1.007156
2237	-0.03474426	-0.01615906	-1.00708
2238	-0.03646851	-0.0184021	-1.003113
2239	-0.006973267	-0.02372742	-1.015839
2240	-0.03430176	-0.01968384	-1.007355
2241	-0.03475952	-0.01754761	-1.008972
2242	-0.03340149	-0.01803589	-1.006256
2243	-0.0345459	-0.01872253	-1.00589
2244	-0.0350647	-0.01890564	-1.007675
2245	-0.03518677	-0.01768494	-1.006409
2246	-0.03459167	-0.01797485	-1.00589
2247	-0.03475952	-0.01748657	-1.00592
2248	-0.03521729	-0.01675415	-1.008636
2249	-0.03465271	-0.01820374	-1.007034
2250	-0.03396606	-0.01895142	-1.006882
2251	-0.03471375	-0.01864624	-1.007889
2252	-0.03445435	-0.01921082	-1.009033
2253	-0.03549194	-0.01890564	-1.00499
2254	-0.03442383	-0.01818848	-1.005264
2255	-0.0333252	-0.01800537	-1.006027
2256	-0.03523254	-0.02003479	-1.007828
2257	-0.03507996	-0.0176239	-1.005798
2258	-0.03536987	-0.01823425	-1.009018
2259	-0.03437805	-0.01933289	-1.009064
2260	-0.03611755	-0.01742554	-1.008072
2261	-0.03436279	-0.0178833	-1.006607
2262	-0.0330658	-0.01971436	-1.006775
2263	-0.03523254	-0.0191803	-1.006989
2264	-0.03520203	-0.01902771	-1.006775
2265	-0.03256226	-0.01873779	-1.006699
2266	-0.03366089	-0.01724243	-1.007629
2267	-0.03445435	-0.01852417	-1.012085
2268	-0.03433228	-0.01876831	-1.014771
2269	-0.03433228	-0.01806641	-1.013046
2270	-0.0337677	-0.01805115	-1.012955
2271	-0.03477478	-0.01771545	-1.011917
2272	-0.03543091	-0.01777649	-1.012756
2273	-0.03405762	-0.01805115	-1.010437
2274	-0.03451538	-0.0181427	-1.010284
2275	-0.03437805	-0.01792908	-1.007462
2276	-0.03375244	-0.01809692	-1.008865
2277	-0.03425598	-0.01727295	-1.0065
2278	-0.03443909	-0.01686096	-1.006989
2279	-0.03610229	-0.01831055	-1.007156
2280	-0.03283691	-0.01956177	-1.007095
2281	-0.03456116	-0.0171814	-1.007904
2282	-0.03388977	-0.01708984	-1.005905
2283	-0.03466797	-0.02064514	-1.009171
2284	-0.03434753	-0.01820374	-1.006104
2285	-0.03605652	-0.01821899	-1.008347
2286	-0.03474426	-0.01742554	-1.006821
2287	-0.03503418	-0.01875305	-1.007462
2288	-0.03501892	-0.01876831	-1.007721
2289	-0.0342865	-0.01953125	-1.006256
2290	-0.03436279	-0.01737976	-1.006927
2291	-0.03367615	-0.01873779	-1.006668
2292	-0.03262329	-0.01927185	-1.006531
2293	-0.03359985	-0.01821899	-1.009293
2294	-0.03433228	-0.01795959	-1.00563
2295	-0.03381348	-0.01971436	-1.006149
2296	-0.03129578	-0.01786804	-1.007156
2297	-0.03253174	-0.01838684	-1.00647
2298	-0.03309631	-0.01690674	-1.006226
2299	-0.03401184	-0.01934814	-1.006378
2300	-0.03530884	-0.01951599	-1.008118
2301	-0.0344696	-0.01841736	-1.007629
2302	-0.03570557	-0.01907349	-1.007751
2303	-0.03479004	-0.01797485	-1.006592
2304	-0.03523254	-0.01660156	-1.008072
2305	-0.03460693	-0.01756287	-1.005203
2306	-0.03417969	-0.01914978	-1.00618
2307	-0.03436279	-0.01815796	-1.005875
2308	-0.03297424	-0.01779175	-1.006775
2309	-0.03511047	-0.01780701	-1.007629
2310	-0.03424072	-0.02003479	-1.007339
2311	-0.03384399	-0.01844788	-1.00618
2312	-0.03503418	-0.01754761	-1.00528
2313	-0.03729248	-0.0178833	-1.008926
2314	-0.03619385	-0.0181427	-1.007492
2315	-0.03697205	-0.01809692	-1.007568
2316	-0.03424072	-0.01824951	-1.006363
2317	-0.0335083	-0.01834106	-1.007614
2318	-0.03453064	-0.01831055	-1.006851
2319	-0.03533936	-0.01838684	-1.005905
2320	-0.03457642	-0.01928711	-1.005096
2321	-0.03381348	-0.01812744	-1.006393
2322	-0.03405762	-0.01812744	-1.006287
2323	-0.03372192	-0.01873779	-1.006897
2324	-0.03666687	-0.01730347	-1.006622
2325	-0.03286743	-0.01992798	-1.00705
2326	-0.03404236	-0.01676941	-1.005447
2327	-0.03471375	-0.01849365	-1.01004
2328	-0.03585815	-0.01855469	-1.012894
2329	-0.03379822	-0.01913452	-1.011093
2330	-0.03388977	-0.01828003	-1.011795
2331	-0.03614807	-0.0191803	-1.008072
2332	-0.03579712	-0.01876831	-1.009842
2333	-0.03668213	-0.01805115	-1.009598
2334	-0.03468323	-0.01747131	-1.007751
2335	-0.0337677	-0.01947021	-1.006577
2336	-0.03495789	-0.01705933	-1.006744
2337	-0.03500366	-0.01856995	-1.008606
2338	-0.03520203	-0.01795959	-1.005859
2339	-0.03678894	-0.01878357	-1.007065
2340	-0.0358429	-0.01893616	-1.006027
2341	-0.03471375	-0.01846313	-1.007614
2342	-0.03286743	-0.01806641	-1.006409
2343	-0.03526306	-0.01870728	-1.007812
2344	-0.03598022	-0.01916504	-1.005875
2345	-0.03573608	-0.02101135	-1.004944
2346	-0.03347778	-0.01637268	-1.007812
2347	-0.03379822	-0.01687622	-1.00856
2348	-0.03393555	-0.01853943	-1.007339
2349	-0.0348053	-0.01823425	-1.007767
2350	-0.03651428	-0.0177002	-1.00708
2351	-0.03417969	-0.01957703	-1.007004
2352	-0.03382874	-0.01811218	-1.007843
2353	-0.0328064	-0.01856995	-1.009048
2354	-0.03555298	-0.01824951	-1.006546
2355	-0.03443909	-0.01927185	-1.007263
2356	-0.03450012	-0.01806641	-1.007401
2357	-0.03385925	-0.01802063	-1.005356
2358	-0.03512573	-0.01873779	-1.007446
2359	-0.03469849	-0.01997375	-1.006638
2360	-0.03427124	-0.01852417	-1.005142
2361	-0.03372192	-0.01856995	-1.006012
2362	-0.03416443	-0.01721191	-1.007034
2363	-0.03424072	-0.01971436	-1.004745
2364	-0.03411865	-0.01933289	-1.008499
2365	-0.03434753	-0.01675415	-1.006058
2366	-0.03494263	-0.01873779	-1.00769
2367	-0.03388977	-0.01916504	-1.006027
2368	-0.03265381	-0.01768494	-1.007477
2369	-0.034729	-0.01818848	-1.007217
2370	-0.03540039	-0.02030945	-1.007996
2371	-0.03625488	-0.01925659	-1.007156
2372	-0.03445435	-0.01800537	-1.007431
2373	-0.03337097	-0.01812744	-1.005829
2374	-0.03405762	-0.01997375	-1.007492
2375	-0.03570557	-0.01914978	-1.006424
2376	-0.0337677	-0.01933289	-1.008942
2377	-0.03305054	-0.01782227	-1.003967
2378	-0.03450012	-0.01831055	-1.009613
2379	-0.0340271	-0.01834106	-1.01236
2380	-0.03552246	-0.01794434	-1.014435
2381	-0.03320312	-0.01808167	-1.012268
2382	-0.0340271	-0.01719666	-1.01239
2383	-0.03274536	-0.01696777	-1.011185
2384	-0.03585815	-0.01881409	-1.009293
2385	-0.03419495	-0.01724243	-1.008072
2386	-0.03384399	-0.01724243	-1.008713
2387	-0.03540039	-0.01890564	-1.011108
2388	-0.03395081	-0.0160675	-1.013443
2389	-0.03213501	-0.01861572	-1.015839
2390	-0.03489685	-0.01895142	-1.014206
2391	-0.03343201	-0.01916504	-1.010864
2392	-0.03482056	-0.01945496	-1.01088
2393	-0.03224182	-0.01751709	-1.012436
2394	-0.03439331	-0.0184021	-1.014252
2395	-0.03424072	-0.01777649	-1.014267
2396	-0.03411865	-0.0173645	-1.013596
2397	-0.03523254	-0.01921082	-1.009872
2398	-0.03318787	-0.01528931	-1.008713
2399	-0.0349884	-0.0194397	-1.009048
2400	-0.03404236	-0.01800537	-1.0121
2401	-0.03329468	-0.01899719	-1.007187
2402	-0.03504944	-0.01861572	-1.005692
2403	-0.03500366	-0.01722717	-1.008163
2404	-0.03565979	-0.01919556	-1.007263
2405	-0.03578186	-0.0178833	-1.007385
2406	-0.03291321	-0.01887512	-1.007248
2407	-0.03337097	-0.01771545	-1.010864
2408	-0.03579712	-0.01715088	-1.008789
2409	-0.03334045	-0.01812744	-1.007584
2410	-0.03501892	-0.01930237	-1.007217
2411	-0.03479004	-0.01861572	-1.007095
2412	-0.03520203	-0.01835632	-1.009628
2413	-0.03529358	-0.01905823	-1.006729
2414	-0.03425598	-0.01982117	-1.008102
2415	-0.03263855	-0.01748657	-1.007568
2416	-0.03283691	-0.01831055	-1.006973
2417	-0.03395081	-0.01911926	-1.011658
2418	-0.03419495	-0.01794434	-1.014877
2419	-0.03381348	-0.01896667	-1.016006
2420	-0.03268433	-0.01777649	-1.010941
2421	-0.03118896	-0.0177002	-1.014038
2422	-0.03451538	-0.01838684	-1.008698
2423	-0.03334045	-0.01823425	-1.008698
2424	-0.03355408	-0.01824951	-1.009476
2425	-0.0355835	-0.01748657	-1.007385
2426	-0.03422546	-0.01829529	-1.006287
2427	-0.03309631	-0.01783752	-1.006546
2428	-0.03282166	-0.02006531	-1.007355
2429	-0.03456116	-0.01847839	-1.006348
2430	-0.03411865	-0.01933289	-1.007935
2431	-0.03320312	-0.01664734	-1.007675
2432	-0.03453064	-0.01831055	-1.006622
2433	-0.03222656	-0.01896667	-1.007446
2434	-0.0337677	-0.01676941	-1.00827
2435	-0.03471375	-0.01986694	-1.006485
2436	-0.03535461	-0.01837158	-1.006378
2437	-0.03543091	-0.01945496	-1.008575
2438	-0.03475952	-0.02015686	-1.00882
2439	-0.03663635	-0.01797485	-1.007538
2440	-0.03343201	-0.01901245	-1.007507
2441	-0.03770447	-0.01818848	-1.008194
2442	-0.03318787	-0.01881409	-1.005844
2443	-0.03448486	-0.01678467	-1.00827
2444	-0.03405762	-0.01887512	-1.006744
2445	-0.0340271	-0.01875305	-1.006104
2446	-0.03556824	-0.0171814	-1.007721
2447	-0.0342865	-0.01950073	-1.01001
2448	-0.0355072	-0.01542664	-1.014725
2449	-0.03398132	-0.01925659	-1.01532
2450	-0.03373718	-0.01747131	-1.015457
2451	-0.03593445	-0.0173645	-1.013138
2452	-0.03604126	-0.01856995	-1.011871
2453	-0.03488159	-0.01818848	-1.011459
2454	-0.03424072	-0.01779175	-1.010422
2455	-0.03457642	-0.01911926	-1.007721
2456	-0.03433228	-0.01921082	-1.00827
2457	-0.03443909	-0.01889038	-1.008087
2458	-0.03233337	-0.01863098	-1.008362
2459	-0.03639221	-0.01860046	-1.006653
2460	-0.03512573	-0.01754761	-1.006729
2461	-0.03373718	-0.01783752	-1.007172
2462	-0.03729248	-0.01777649	-1.007538
2463	-0.03483582	-0.01820374	-1.007706
2464	-0.03463745	-0.01902771	-1.006729
2465	-0.03590393	-0.01872253	-1.007736
2466	-0.03405762	-0.0193634	-1.008591
2467	-0.0320282	-0.01998901	-1.007004
2468	-0.03237915	-0.01554871	-1.008011
2469	-0.03604126	-0.0196228	-1.008286
2470	-0.03381348	-0.01834106	-1.007111
2471	-0.03393555	-0.01905823	-1.007935
2472	-0.03619385	-0.01829529	-1.00856
2473	-0.03359985	-0.02030945	-1.006653
2474	-0.03225708	-0.01873779	-1.006378
2475	-0.03398132	-0.01890564	-1.008377
2476	-0.03448486	-0.01989746	-1.007904
2477	-0.03340149	-0.01881409	-1.008621
2478	-0.03613281	-0.01821899	-1.007523
2479	-0.0358429	-0.01844788	-1.008011
2480	-0.03459167	-0.01934814	-1.007462
2481	-0.03445435	-0.01777649	-1.007675
2482	-0.03712463	-0.01954651	-1.005692
2483	-0.0350647	-0.01826477	-1.007706
2484	-0.03396606	-0.01806641	-1.005798
2485	-0.03378296	-0.01780701	-1.008255
2486	-0.03660583	-0.01713562	-1.00618
2487	-0.03408813	-0.01832581	-1.007172
2488	-0.0358429	-0.01980591	-1.006638
2489	-0.03361511	-0.01828003	-1.006927
2490	-0.03573608	-0.01759338	-1.006332
2491	-0.03688049	-0.01777649	-1.006271
2492	-0.03573608	-0.01879883	-1.005341
2493	-0.03347778	-0.01878357	-1.005722
2494	-0.03503418	-0.01722717	-1.005707
2495	-0.03431702	-0.0188446	-1.006927
2496	-0.03543091	-0.01803589	-1.006927
2497	-0.03527832	-0.01799011	-1.00708
2498	-0.03417969	-0.0181427	-1.010178
2499	-0.0349884	-0.01875305	-1.007874
2500	-0.03372192	-0.01931763	-1.007416
2501	-0.03283691	-0.01805115	-1.007416
2502	-0.0350647	-0.01646423	-1.006485
2503	-0.03375244	-0.01834106	-1.007767
2504	-0.03355408	-0.01847839	-1.008636
2505	-0.03622437	-0.02043152	-1.006775
2506	-0.03536987	-0.01794434	-1.00737
2507	-0.03456116	-0.01881409	-1.011261
2508	-0.03601074	-0.01901245	-1.01384
2509	-0.0342865	-0.01925659	-1.010925
2510	-0.03222656	-0.0184021	-1.012711
2511	-0.03292847	-0.01817322	-1.010483
2512	-0.03530884	-0.01828003	-1.009186
2513	-0.03356934	-0.01641846	-1.008575
2514	-0.03425598	-0.01904297	-1.007568
2515	-0.03466797	-0.01802063	-1.007553
2516	-0.03253174	-0.01902771	-1.007355
2517	-0.03431702	-0.01860046	-1.007233
2518	-0.03469849	-0.01776123	-1.00737
2519	-0.03413391	-0.02050781	-1.007126
2520	-0.036026	-0.01750183	-1.008286
2521	-0.03388977	-0.01808167	-1.008041
2522	-0.03436279	-0.01861572	-1.006897
2523	-0.03491211	-0.01864624	-1.008331
2524	-0.03437805	-0.01931763	-1.007935
2525	-0.03314209	-0.01896667	-1.006073
2526	-0.03253174	-0.01805115	-1.007309
2527	-0.03300476	-0.01669312	-1.00708
2528	-0.03245544	-0.01860046	-1.006683
2529	-0.03497314	-0.01864624	-1.007111
2530	-0.03494263	-0.01867676	-1.007019
2531	-0.03500366	-0.01815796	-1.0065
2532	-0.03451538	-0.01721191	-1.00589
2533	-0.03308105	-0.01730347	-1.008286
2534	-0.03617859	-0.01763916	-1.006866
2535	-0.03507996	-0.01721191	-1.006592
2536	-0.03497314	-0.01930237	-1.008636
2537	-0.03469849	-0.02027893	-1.006638
2538	-0.03436279	-0.01637268	-1.007401
2539	-0.03495789	-0.01861572	-1.00679
2540	-0.03311157	-0.0176239	-1.007263
2541	-0.03416443	-0.01753235	-1.007233
2542	-0.03282166	-0.0193634	-1.007538
2543	-0.03410339	-0.01872253	-1.005646
2544	-0.03553772	-0.01705933	-1.006149
2545	-0.03623962	-0.01731873	-1.005753
2546	-0.03451538	-0.01841736	-1.005875
2547	-0.03512573	-0.01939392	-1.008163
2548	-0.03411865	-0.01747131	-1.007874
2549	-0.03553772	-0.01702881	-1.00705
2550	-0.03378296	-0.01777649	-1.004654
2551	-0.0349884	-0.01860046	-1.007065
2552	-0.03540039	-0.01808167	-1.007828
2553	-0.03303528	-0.01664734	-1.00853
2554	-0.03398132	-0.01937866	-1.009186
2555	-0.0344696	-0.01947021	-1.006683
2556	-0.03579712	-0.01971436	-1.005966
2557	-0.03590393	-0.01785278	-1.007126
2558	-0.03401184	-0.01731873	-1.005203
2559	-0.03453064	-0.0174408	-1.007431
2560	-0.03497314	-0.01911926	-1.007812
2561	-0.0344696	-0.01820374	-1.006439
2562	-0.0345459	-0.01895142	-1.007217
2563	-0.03378296	-0.01799011	-1.005753
2564	-0.03388977	-0.01828003	-1.007355
2565	-0.034729	-0.0173645	-1.0065
2566	-0.03462219	-0.01907349	-1.007202
2567	-0.03363037	-0.01708984	-1.008514
2568	-0.03523254	-0.01922607	-1.010712
2569	-0.03410339	-0.01847839	-1.010086
2570	-0.03440857	-0.01847839	-1.009094
2571	-0.03515625	-0.0186615	-1.009232
2572	-0.03427124	-0.01701355	-1.009857
2573	-0.03530884	-0.01748657	-1.007156
2574	-0.03353882	-0.01966858	-1.005524
2575	-0.03457642	-0.01889038	-1.007278
2576	-0.03424072	-0.01838684	-1.00737
2577	-0.03536987	-0.01655579	-1.006226
2578	-0.03555298	-0.01934814	-1.007126
2579	-0.03451538	-0.01786804	-1.008118
2580	-0.03326416	-0.01931763	-1.008881
2581	-0.03485107	-0.01835632	-1.006439
2582	-0.03569031	-0.01911926	-1.007523
2583	-0.03700256	-0.01734924	-1.008133
2584	-0.03552246	-0.01879883	-1.006607
2585	-0.03282166	-0.01921082	-1.005829
2586	-0.03561401	-0.01794434	-1.008484
2587	-0.03663635	-0.01803589	-1.006088
2588	-0.03588867	-0.01739502	-1.006027
2589	-0.03292847	-0.01889038	-1.006943
2590	-0.03416443	-0.01890564	-1.006622
2591	-0.03479004	-0.01876831	-1.004761
2592	-0.03379822	-0.0196228	-1.007263
2593	-0.03565979	-0.01881409	-1.007507
2594	-0.03488159	-0.01960754	-1.00943
2595	-0.0355072	-0.01879883	-1.007065
2596	-0.03453064	-0.01927185	-1.008606
2597	-0.03477478	-0.01779175	-1.007767
2598	-0.03329468	-0.01905823	-1.007782
2599	-0.03242493	-0.0189209	-1.004745
2600	-0.03570557	-0.01837158	-1.00589
2601	-0.03587341	-0.01872253	-1.004852
2602	-0.03520203	-0.01776123	-1.006195
2603	-0.03527832	-0.01901245	-1.006317
2604	-0.03512573	-0.01853943	-1.004486
2605	-0.03593445	-0.01818848	-1.008286
2606	-0.03440857	-0.01803589	-1.007431
2607	-0.03581238	-0.0174408	-1.007339
2608	-0.03491211	-0.01696777	-1.00621
2609	-0.03459167	-0.01756287	-1.011002
2610	-0.03495789	-0.01928711	-1.013367
2611	-0.03414917	-0.01786804	-1.013885
2612	-0.03443909	-0.01689148	-1.010544
2613	-0.0342865	-0.01916504	-1.013351
2614	-0.0355835	-0.01791382	-1.008743
2615	-0.03503418	-0.01895142	-1.00885
2616	-0.03337097	-0.01951599	-1.009842
2617	-0.03422546	-0.01895142	-1.007065
2618	-0.03517151	-0.01947021	-1.009735
2619	-0.03344727	-0.01809692	-1.007645
2620	-0.0322876	-0.01896667	-1.00824
2621	-0.03294373	-0.01768494	-1.008453
2622	-0.0348053	-0.01733398	-1.007401
2623	-0.03419495	-0.01727295	-1.008636
2624	-0.0345459	-0.01745605	-1.006454
2625	-0.03343201	-0.01881409	-1.008621
2626	-0.03489685	-0.02047729	-1.005966
2627	-0.0344696	-0.01818848	-1.010986
2628	-0.0349884	-0.01799011	-1.011475
2629	-0.03507996	-0.01701355	-1.011795
2630	-0.0350647	-0.01809692	-1.009338
2631	-0.03353882	-0.01968384	-1.008926
2632	-0.03721619	-0.01802063	-1.008224
2633	-0.03561401	-0.01853943	-1.007843
2634	-0.03677368	-0.01872253	-1.007568
2635	-0.03599548	-0.02087402	-1.007492
2636	-0.0342865	-0.01763916	-1.007919
2637	-0.03646851	-0.01922607	-1.005203
2638	-0.03451538	-0.0201416	-1.007233
2639	-0.03335571	-0.01817322	-1.008316
2640	-0.03385925	-0.01860046	-1.007889
2641	-0.03359985	-0.01811218	-1.007858
2642	-0.03672791	-0.01974487	-1.005524
2643	-0.03535461	-0.01794434	-1.00679
2644	-0.03405762	-0.01773071	-1.007431
2645	-0.03274536	-0.01794434	-1.007401
2646	-0.03616333	-0.01928711	-1.006775
2647	-0.03625488	-0.0173645	-1.007217
2648	-0.0340271	-0.0196991	-1.007645
2649	-0.03686523	-0.01959229	-1.006378
2650	-0.03683472	-0.01971436	-1.00766
2651	-0.03527832	-0.01899719	-1.008667
2652	-0.03573608	-0.01785278	-1.006378
2653	-0.03469849	-0.01887512	-1.007889
2654	-0.03504944	-0.01849365	-1.006714
2655	-0.03411865	-0.01901245	-1.00856
2656	-0.03134155	-0.01844788	-1.007233
2657	-0.03443909	-0.0176239	-1.006836
2658	-0.03582764	-0.01716614	-1.006668
2659	-0.03431702	-0.01855469	-1.006989
2660	-0.03538513	-0.01849365	-1.007355
2661	-0.03483582	-0.01751709	-1.006805
2662	-0.0349884	-0.02046204	-1.008072
2663	-0.0355835	-0.01860046	-1.00708
2664	-0.03497314	-0.01948547	-1.007492
2665	-0.03297424	-0.01942444	-1.007919
2666	-0.0349884	-0.01902771	-1.007812
2667	-0.03485107	-0.01882935	-1.007507
2668	-0.03509521	-0.01911926	-1.004547
2669	-0.03553772	-0.01800537	-1.006897
2670	-0.03308105	-0.01780701	-1.006226
2671	-0.03482056	-0.01803589	-1.0065
2672	-0.0349884	-0.01785278	-1.006027
2673	-0.03344727	-0.01942444	-1.008865
2674	-0.03556824	-0.01753235	-1.007034
2675	-0.03657532	-0.01863098	-1.004913
2676	-0.03494263	-0.01991272	-1.007385
2677	-0.03434753	-0.01707458	-1.005737
2678	-0.03611755	-0.01763916	-1.00824
2679	-0.03527832	-0.01835632	-1.007278
2680	-0.03553772	-0.01875305	-1.007187
2681	-0.03559875	-0.01911926	-1.006927
2682	-0.03434753	-0.01771545	-1.006332
2683	-0.03483582	-0.01829529	-1.006531
2684	-0.03541565	-0.01885986	-1.006516
2685	-0.03466797	-0.01747131	-1.007584
2686	-0.03570557	-0.01791382	-1.007401
2687	-0.03530884	-0.01956177	-1.008179
2688	-0.03422546	-0.01794434	-1.010406
2689	-0.03770447	-0.01994324	-1.009964
2690	-0.03518677	-0.01811218	-1.006348
2691	-0.03530884	-0.01806641	-1.009079
2692	-0.03770447	-0.01846313	-1.007629
2693	-0.03515625	-0.01849365	-1.007767
2694	-0.03588867	-0.01715088	-1.00679
2695	-0.03492737	-0.01911926	-1.005402
2696	-0.03466797	-0.01800537	-1.009109
2697	-0.03314209	-0.01931763	-1.00676
2698	-0.03501892	-0.01721191	-1.007263
2699	-0.03594971	-0.01904297	-1.007385
2700	-0.03440857	-0.01792908	-1.007568
2701	-0.03552246	-0.01927185	-1.006073
2702	-0.03616333	-0.01673889	-1.005905
2703	-0.03411865	-0.02090454	-1.008179
2704	-0.03543091	-0.0188446	-1.006561
2705	-0.03689575	-0.01705933	-1.007523
2706	-0.03474426	-0.01837158	-1.007385
2707	-0.03330994	-0.01759338	-1.006943
2708	-0.03579712	-0.01802063	-1.007446
2709	-0.03536987	-0.01832581	-1.007065
2710	-0.03474426	-0.01808167	-1.007126
2711	-0.03594971	-0.01686096	-1.007172
2712	-0.03573608	-0.01838684	-1.006927
2713	-0.03587341	-0.01698303	-1.007629
2714	-0.03414917	-0.01821899	-1.007156
2715	-0.03437805	-0.01927185	-1.00766
2716	-0.03311157	-0.01751709	-1.005692
2717	-0.03387451	-0.01756287	-1.006241
2718	-0.03507996	-0.0176239	-1.006897
2719	-0.03419495	-0.01940918	-1.008224
2720	-0.03477478	-0.01847839	-1.007736
2721	-0.03416443	-0.01890564	-1.007401
2722	-0.03503418	-0.01864624	-1.007141
2723	-0.03416443	-0.01994324	-1.006012
2724	-0.03193665	-0.01956177	-1.006424
2725	-0.03665161	-0.01914978	-1.006393
2726	-0.03527832	-0.01869202	-1.00618
2727	-0.03311157	-0.01701355	-1.007126
2728	-0.0342865	-0.01747131	-1.006332
2729	-0.03439331	-0.01869202	-1.006638
2730	-0.03436279	-0.01789856	-1.007294
2731	-0.03396606	-0.01824951	-1.006439
2732	-0.03369141	-0.01858521	-1.00798
2733	-0.03623962	-0.01844788	-1.00647
2734	-0.03533936	-0.01876831	-1.007095
2735	-0.03672791	-0.01898193	-1.006912
2736	-0.03463745	-0.01756287	-1.005707
2737	-0.03346252	-0.0181427	-1.00647
2738	-0.03640747	-0.01924133	-1.006714
2739	-0.03422546	-0.01824951	-1.007111
2740	-0.03208923	-0.01686096	-1.008453
2741	-0.03434753	-0.01873779	-1.006866
2742	-0.03424072	-0.01849365	-1.0065
2743	-0.0348053	-0.01856995	-1.006073
2744	-0.03372192	-0.01956177	-1.006714
2745	-0.03541565	-0.01797485	-1.006332
2746	-0.03594971	-0.01843262	-1.005615
2747	-0.0370636	-0.0193634	-1.009415
2748	-0.03585815	-0.01835632	-1.013901
2749	-0.0345459	-0.02033997	-1.01416
2750	-0.03224182	-0.01678467	-1.01532
2751	-0.03491211	-0.01797485	-1.011795
2752	-0.03442383	-0.0174408	-1.010391
2753	-0.0342865	-0.01959229	-1.010376
2754	-0.03475952	-0.01824951	-1.00853
2755	-0.03474426	-0.01782227	-1.006729
2756	-0.03437805	-0.01982117	-1.009537
2757	-0.03385925	-0.01965332	-1.00853
2758	-0.0342865	-0.01968384	-1.006882
2759	-0.0328064	-0.01834106	-1.007843
2760	-0.03651428	-0.01776123	-1.008835
2761	-0.03312683	-0.01812744	-1.008499
2762	-0.03364563	-0.01733398	-1.008255
2763	-0.0352478	-0.01887512	-1.005371
2764	-0.03395081	-0.01956177	-1.008499
2765	-0.03479004	-0.01931763	-1.007568
2766	-0.0340271	-0.0206604	-1.007217
2767	-0.03552246	-0.01785278	-1.006393
2768	-0.03385925	-0.01835632	-1.005814
2769	-0.03474426	-0.01856995	-1.0065
2770	-0.03367615	-0.01971436	-1.006332
2771	-0.0349884	-0.01873779	-1.00943
2772	-0.03410339	-0.01702881	-1.00827
2773	-0.03527832	-0.0168457	-1.008362
2774	-0.03439331	-0.01808167	-1.007935
2775	-0.03585815	-0.01774597	-1.005859
2776	-0.03436279	-0.01963806	-1.006287
2777	-0.03372192	-0.01780701	-1.006927
2778	-0.03312683	-0.01875305	-1.005753
2779	-0.03672791	-0.01965332	-1.009262
2780	-0.03396606	-0.0171814	-1.009567
2781	-0.0350647	-0.01879883	-1.006409
2782	-0.03547668	-0.01695251	-1.007843
2783	-0.03411865	-0.01702881	-1.007858
2784	-0.03424072	-0.01765442	-1.007645
2785	-0.03424072	-0.0177002	-1.007004
2786	-0.03337097	-0.01731873	-1.006439
2787	-0.03494263	-0.01931763	-1.007233
2788	-0.03564453	-0.01669312	-1.007278
2789	-0.03375244	-0.01629639	-1.009018
2790	-0.03544617	-0.01687622	-1.0065
2791	-0.03404236	-0.01777649	-1.007187
2792	-0.03408813	-0.01826477	-1.006714
2793	-0.03645325	-0.01760864	-1.00885
2794	-0.03442383	-0.01887512	-1.007355
2795	-0.03536987	-0.0176239	-1.007736
2796	-0.03392029	-0.01844788	-1.006607
2797	-0.03546143	-0.01809692	-1.009201
2798	-0.03460693	-0.01959229	-1.006226
2799	-0.03504944	-0.01739502	-1.00737
2800	-0.03414917	-0.01867676	-1.008682
2801	-0.03588867	-0.01826477	-1.006897
2802	-0.03744507	-0.01835632	-1.008331
2803	-0.03329468	-0.01843262	-1.007278
2804	-0.03517151	-0.01945496	-1.007996
2805	-0.03311157	-0.02024841	-1.008774
2806	-0.03292847	-0.01777649	-1.007843
2807	-0.03450012	-0.01856995	-1.008759
2808	-0.03416443	-0.01753235	-1.00946
2809	-0.03460693	-0.01808167	-1.010223
2810	-0.03488159	-0.0189209	-1.009277
2811	-0.03416443	-0.01786804	-1.007614
2812	-0.03413391	-0.01989746	-1.008743
2813	-0.0340271	-0.01789856	-1.005997
2814	-0.03466797	-0.0201416	-1.006821
2815	-0.03501892	-0.01828003	-1.006119
2816	-0.03598022	-0.01905823	-1.006516
2817	-0.03483582	-0.01811218	-1.007309
2818	-0.0353241	-0.01933289	-1.006744
2819	-0.03393555	-0.01779175	-1.006653
2820	-0.03497314	-0.0188446	-1.007904
2821	-0.03369141	-0.01869202	-1.009552
2822	-0.03277588	-0.02098083	-1.009171
2823	-0.03627014	-0.01951599	-1.008331
2824	-0.03263855	-0.01824951	-1.007843
2825	-0.03462219	-0.01968384	-1.006134
2826	-0.03630066	-0.02085876	-1.00621
2827	-0.0333252	-0.0177002	-1.006714
2828	-0.03511047	-0.01644897	-1.005554
2829	-0.03268433	-0.01806641	-1.006897
2830	-0.03530884	-0.01838684	-1.007202
2831	-0.03677368	-0.01899719	-1.007568
2832	-0.03378296	-0.01824951	-1.007187
2833	-0.03623962	-0.01971436	-1.007446
2834	-0.03578186	-0.01905823	-1.007477
2835	-0.03414917	-0.01728821	-1.006439
2836	-0.03523254	-0.01899719	-1.008972
2837	-0.03675842	-0.01835632	-1.007355
2838	-0.03457642	-0.01957703	-1.006775
2839	-0.03581238	-0.01994324	-1.006668
2840	-0.03356934	-0.01953125	-1.00679
2841	-0.03312683	-0.01748657	-1.00769
2842	-0.03491211	-0.01661682	-1.006226
2843	-0.03430176	-0.01850891	-1.006699
2844	-0.03547668	-0.0184021	-1.004257
2845	-0.03533936	-0.01725769	-1.006653
2846	-0.0358429	-0.01779175	-1.006668
2847	-0.03337097	-0.01856995	-1.005951
2848	-0.03416443	-0.01817322	-1.007172
2849	-0.03303528	-0.01702881	-1.005112
2850	-0.03590393	-0.01966858	-1.005753
2851	-0.03573608	-0.01821899	-1.008652
2852	-0.03361511	-0.01992798	-1.006104
2853	-0.03529358	-0.0181427	-1.006912
2854	-0.03572083	-0.01858521	-1.005661
2855	-0.03370667	-0.01721191	-1.006027
2856	-0.03302002	-0.01954651	-1.007095
2857	-0.03582764	-0.01821899	-1.005356
2858	-0.03268433	-0.01817322	-1.007141
2859	-0.03317261	-0.01904297	-1.007309
2860	-0.03553772	-0.01818848	-1.007568
2861	-0.03515625	-0.01824951	-1.007767
2862	-0.03460693	-0.01852417	-1.006958
2863	-0.03443909	-0.01876831	-1.007233
2864	-0.03569031	-0.01809692	-1.007935
2865	-0.03312683	-0.01870728	-1.006714
2866	-0.0350647	-0.0171814	-1.007935
2867	-0.03436279	-0.0178833	-1.007004
2868	-0.03346252	-0.01808167	-1.009033
2869	-0.0332489	-0.01757812	-1.008286
2870	-0.03379822	-0.01713562	-1.008057
2871	-0.03462219	-0.01686096	-1.00502
2872	-0.03561401	-0.01893616	-1.007126
2873	-0.03610229	-0.01783752	-1.006622
2874	-0.03471375	-0.01818848	-1.006546
2875	-0.03399658	-0.01911926	-1.006546
2876	-0.03642273	-0.01741028	-1.006012
2877	-0.03436279	-0.01849365	-1.006882
2878	-0.03538513	-0.01864624	-1.006821
2879	-0.03671265	-0.01942444	-1.006958
2880	-0.03627014	-0.01773071	-1.006622
2881	-0.03475952	-0.01861572	-1.006439
2882	-0.03491211	-0.01916504	-1.007401
2883	-0.03483582	-0.01737976	-1.007187
2884	-0.03541565	-0.01870728	-1.007294
2885	-0.03627014	-0.01846313	-1.005707
2886	-0.0344696	-0.01689148	-1.005981
2887	-0.03562927	-0.01858521	-1.007309
2888	-0.03552246	-0.01722717	-1.006775
2889	-0.0353241	-0.01913452	-1.007355
2890	-0.03511047	-0.01834106	-1.009064
2891	-0.03401184	-0.01687622	-1.005783
2892	-0.03388977	-0.01812744	-1.007248
2893	-0.03475952	-0.01852417	-1.005676
2894	-0.03392029	-0.0181427	-1.006821
2895	-0.03460693	-0.02085876	-1.004425
2896	-0.03359985	-0.0181427	-1.008392
2897	-0.03434753	-0.01811218	-1.006638
2898	-0.03565979	-0.01873779	-1.007812
2899	-0.03294373	-0.01885986	-1.004959
2900	-0.03727722	-0.01731873	-1.00267
2901	-0.03546143	-0.01806641	-1.005783
2902	-0.03617859	-0.01753235	-1.00705
2903	-0.03695679	-0.01863098	-1.006989
2904	-0.03533936	-0.01820374	-1.004364
2905	-0.03285217	-0.01800537	-1.007828
2906	-0.0349884	-0.01847839	-1.007278
2907	-0.03485107	-0.01870728	-1.007553
2908	-0.03520203	-0.01734924	-1.007324
2909	-0.03526306	-0.01750183	-1.004913
2910	-0.03378296	-0.01753235	-1.008575
2911	-0.03546143	-0.01861572	-1.00769
2912	-0.03436279	-0.01844788	-1.006805
2913	-0.03660583	-0.01965332	-1.006973
2914	-0.03479004	-0.01846313	-1.006927
2915	-0.03671265	-0.01895142	-1.005783
2916	-0.03598022	-0.01991272	-1.006744
2917	-0.03463745	-0.01776123	-1.006256
2918	-0.03590393	-0.01779175	-1.006027
2919	-0.03623962	-0.02069092	-1.006073
2920	-0.03591919	-0.01826477	-1.006607
2921	-0.03500366	-0.02052307	-1.005722
2922	-0.03387451	-0.01942444	-1.007004
2923	-0.03387451	-0.02046204	-1.005981
2924	-0.03292847	-0.01948547	-1.006058
2925	-0.03497314	-0.01754761	-1.007416
2926	-0.03387451	-0.01815796	-1.005905
2927	-0.03387451	-0.01895142	-1.008469
2928	-0.03627014	-0.01768494	-1.012024
2929	-0.03562927	-0.01856995	-1.01387
2930	-0.03495789	-0.01760864	-1.011734
2931	-0.03274536	-0.01818848	-1.011169
2932	-0.03453064	-0.01673889	-1.010269
2933	-0.03477478	-0.01789856	-1.008118
2934	-0.0345459	-0.01686096	-1.009216
2935	-0.03347778	-0.01872253	-1.007172
2936	-0.03540039	-0.01922607	-1.007248
2937	-0.03369141	-0.01782227	-1.008286
2938	-0.03736877	-0.01817322	-1.005905
2939	-0.03625488	-0.01734924	-1.008362
2940	-0.03511047	-0.01768494	-1.007889
2941	-0.03323364	-0.02030945	-1.007553
2942	-0.03468323	-0.01985168	-1.006821
2943	-0.03265381	-0.01654053	-1.007019
2944	-0.03482056	-0.01673889	-1.007919
2945	-0.03459167	-0.01904297	-1.009369
2946	-0.0337677	-0.01799011	-1.007309
2947	-0.03514099	-0.01846313	-1.008545
2948	-0.03569031	-0.01824951	-1.007416
2949	-0.03385925	-0.01745605	-1.008667
2950	-0.03425598	-0.01931763	-1.007355
2951	-0.03390503	-0.01956177	-1.006226
2952	-0.03535461	-0.01896667	-1.007889
2953	-0.03611755	-0.01737976	-1.007996
2954	-0.03497314	-0.01780701	-1.006485
2955	-0.03405762	-0.01811218	-1.006699
2956	-0.03483582	-0.01844788	-1.006714
2957	-0.03388977	-0.01824951	-1.006729
2958	-0.03573608	-0.01823425	-1.005539
2959	-0.0344696	-0.01826477	-1.006561
2960	-0.03466797	-0.01623535	-1.007217
2961	-0.03471375	-0.01795959	-1.007629
2962	-0.03442383	-0.01887512	-1.007416
2963	-0.03556824	-0.01896667	-1.00708
2964	-0.03535461	-0.01774597	-1.008148
2965	-0.03729248	-0.01911926	-1.006546
2966	-0.03315735	-0.01708984	-1.008011
2967	-0.03517151	-0.01922607	-1.005005
2968	-0.03366089	-0.01928711	-1.007919
2969	-0.03427124	-0.0184021	-1.008698
2970	-0.0357666	-0.01867676	-1.005753
2971	-0.03474426	-0.01853943	-1.005905
2972	-0.03349304	-0.01928711	-1.007614
2973	-0.03294373	-0.01782227	-1.007507
2974	-0.03608704	-0.01872253	-1.006439
2975	-0.03463745	-0.01805115	-1.007294
2976	-0.03430176	-0.01808167	-1.005951
2977	-0.03823853	-0.01998901	-1.006592
2978	-0.03457642	-0.01794434	-1.005585
2979	-0.03405762	-0.01802063	-1.007751
2980	-0.0353241	-0.01986694	-1.007904
2981	-0.03414917	-0.01951599	-1.006805
2982	-0.0353241	-0.01861572	-1.006409
2983	-0.03729248	-0.01985168	-1.005768
2984	-0.03474426	-0.01931763	-1.007309
2985	-0.03695679	-0.01829529	-1.00853
2986	-0.03520203	-0.01828003	-1.007553
2987	-0.03573608	-0.01899719	-1.010727
2988	-0.03575134	-0.01731873	-1.013855
2989	-0.03669739	-0.01957703	-1.013733
2990	-0.03405762	-0.01751709	-1.013474
2991	-0.03450012	-0.01782227	-1.009781
2992	-0.03239441	-0.0181427	-1.011017
2993	-0.0342865	-0.01701355	-1.009933
2994	-0.0353241	-0.01774597	-1.009155
2995	-0.03358459	-0.01852417	-1.00676
2996	-0.0355072	-0.01687622	-1.00499
2997	-0.03292847	-0.01831055	-1.006744
2998	-0.03509521	-0.01937866	-1.009109
2999	-0.03518677	-0.01872253	-1.007187
3000	-0.03346252	-0.01927185	-1.007278
3001	-0.03364563	-0.01925659	-1.00795
3002	-0.03462219	-0.01766968	-1.009262
3003	-0.03407288	-0.01739502	-1.00679
3004	-0.03475952	-0.01828003	-1.006927
3005	-0.03355408	-0.01818848	-1.006577
3006	-0.03610229	-0.01808167	-1.009308
3007	-0.03445435	-0.01661682	-1.006866
3008	-0.03302002	-0.01846313	-1.006042
3009	-0.03659058	-0.01976013	-1.008362
3010	-0.03190613	-0.01783752	-1.007065
3011	-0.03367615	-0.01867676	-1.007706
3012	-0.03511047	-0.01916504	-1.008499
3013	-0.03521729	-0.01780701	-1.005859
3014	-0.03347778	-0.01803589	-1.006439
3015	-0.03372192	-0.01855469	-1.005432
3016	-0.03474426	-0.01783752	-1.008316
3017	-0.03248596	-0.01965332	-1.006607
3018	-0.03271484	-0.01913452	-1.006454
3019	-0.03370667	-0.01789856	-1.006653
3020	-0.03437805	-0.01791382	-1.005783
3021	-0.03486633	-0.0189209	-1.005875
3022	-0.03385925	-0.01992798	-1.006393
3023	-0.03456116	-0.01916504	-1.006699
3024	-0.03367615	-0.0198822	-1.00647
3025	-0.03337097	-0.01998901	-1.005737
3026	-0.03561401	-0.01895142	-1.005356
3027	-0.03468323	-0.01785278	-1.00618
3028	-0.03715515	-0.02102661	-1.005676
3029	-0.03552246	-0.01922607	-1.005081
3030	-0.0349884	-0.01829529	-1.006256
3031	-0.03469849	-0.01954651	-1.00592
3032	-0.03309631	-0.01956177	-1.006805
3033	-0.03445435	-0.01794434	-1.00798
3034	-0.03483582	-0.01922607	-1.005997
3035	-0.03353882	-0.01737976	-1.005829
3036	-0.03652954	-0.01925659	-1.006119
3037	-0.03462219	-0.01791382	-1.006882
3038	-0.03437805	-0.01945496	-1.007034
3039	-0.03517151	-0.01940918	-1.006592
3040	-0.034729	-0.01913452	-1.006958
3041	-0.03547668	-0.01712036	-1.005875
3042	-0.03622437	-0.01858521	-1.004639
3043	-0.03448486	-0.01876831	-1.005646
3044	-0.0348053	-0.01768494	-1.005417
3045	-0.03375244	-0.01858521	-1.006638
3046	-0.03338623	-0.01907349	-1.007614
3047	-0.03442383	-0.01956177	-1.00705
3048	-0.03491211	-0.01939392	-1.01152
3049	-0.03590393	-0.01876831	-1.009186
3050	-0.03392029	-0.0171051	-1.00795
3051	-0.03512573	-0.01742554	-1.006744
3052	-0.03575134	-0.0194397	-1.006348
3053	-0.03462219	-0.01681519	-1.007095
3054	-0.03425598	-0.01890564	-1.007339
3055	-0.03521729	-0.01763916	-1.005829
3056	-0.03596497	-0.01901245	-1.006531
3057	-0.0322113	-0.01919556	-1.006363
3058	-0.03417969	-0.01806641	-1.006805
3059	-0.03425598	-0.01803589	-1.007919
3060	-0.03352356	-0.01849365	-1.006866
3061	-0.03471375	-0.01760864	-1.008575
3062	-0.03485107	-0.01803589	-1.006546
3063	-0.03604126	-0.01811218	-1.007248
3064	-0.0337677	-0.01881409	-1.005127
3065	-0.03401184	-0.01765442	-1.005737
3066	-0.03495789	-0.01815796	-1.007339
3067	-0.03630066	-0.01828003	-1.007462
3068	-0.03651428	-0.01864624	-1.006927
3069	-0.03253174	-0.01904297	-1.005096
3070	-0.03488159	-0.01924133	-1.007401
3071	-0.03421021	-0.01789856	-1.006668
3072	-0.03518677	-0.0186615	-1.006851
3073	-0.03514099	-0.01702881	-1.007584
3074	-0.03407288	-0.01724243	-1.00679
3075	-0.03421021	-0.01895142	-1.006409
3076	-0.03544617	-0.01901245	-1.007645
3077	-0.03207397	-0.01971436	-1.006607
3078	-0.03569031	-0.01925659	-1.0065
3079	-0.03541565	-0.01885986	-1.005783
3080	-0.03656006	-0.01783752	-1.008957
3081	-0.03515625	-0.01925659	-1.007523
3082	-0.03492737	-0.01832581	-1.007568
3083	-0.03379822	-0.01893616	-1.006546
3084	-0.03465271	-0.01712036	-1.005615
3085	-0.03372192	-0.01901245	-1.005646
3086	-0.03295898	-0.01846313	-1.004776
3087	-0.03553772	-0.01753235	-1.00531
3088	-0.03491211	-0.01826477	-1.007187
3089	-0.03623962	-0.01853943	-1.008911
3090	-0.0348053	-0.01779175	-1.006973
3091	-0.03451538	-0.01905823	-1.006104
3092	-0.03317261	-0.01829529	-1.005661
3093	-0.03491211	-0.01849365	-1.006119
3094	-0.03335571	-0.01785278	-1.006012
3095	-0.03471375	-0.01757812	-1.006683
3096	-0.03512573	-0.01924133	-1.006378
3097	-0.03485107	-0.01792908	-1.004929
3098	-0.03495789	-0.01797485	-1.006546
3099	-0.0365448	-0.0188446	-1.007294
3100	-0.03497314	-0.0193634	-1.00528
3101	-0.03334045	-0.01956177	-1.004288
3102	-0.03486633	-0.01713562	-1.008087
3103	-0.03533936	-0.01899719	-1.007202
3104	-0.03387451	-0.01939392	-1.006485
3105	-0.03536987	-0.01823425	-1.005859
3106	-0.03529358	-0.01779175	-1.004288
3107	-0.03562927	-0.01747131	-1.00946
3108	-0.03559875	-0.0160675	-1.006699
3109	-0.03436279	-0.01863098	-1.006866
3110	-0.03610229	-0.01896667	-1.006821
3111	-0.036026	-0.01753235	-1.005386
3112	-0.03474426	-0.01811218	-1.00592
3113	-0.03648376	-0.01835632	-1.006271
3114	-0.03343201	-0.01802063	-1.006424
3115	-0.03465271	-0.01800537	-1.00502
3116	-0.03335571	-0.01919556	-1.006485
3117	-0.03552246	-0.0171051	-1.007462
3118	-0.03799438	-0.01811218	-1.006699
3119	-0.03479004	-0.01896667	-1.007126
3120	-0.03530884	-0.01965332	-1.006485
3121	-0.03587341	-0.01860046	-1.007126
3122	-0.03388977	-0.01754761	-1.008224
3123	-0.03457642	-0.01741028	-1.007202
3124	-0.03302002	-0.01832581	-1.006668
3125	-0.03486633	-0.01800537	-1.005066
3126	-0.03469849	-0.01939392	-1.008255
3127	-0.03555298	-0.0196991	-1.00708
3128	-0.03633118	-0.01824951	-1.006058
